schema_version: "1.0"
domain: ADAE
keys: [STUDYID, USUBJID, AESEQ]
input:
  AE: input/ae.csv
  DM: input/dm.csv
base: AE
intermediates:
  - id: DEATHEV
    dataset: AE
    key: [STUDYID, USUBJID]
    filter: "AE.AEOUT = 'FATAL'"
    order_by: [AE.ASTDT, AE.AESEQ]
    keep: last
    no_match: null

output:
  path: adae.csv
  columns: [STUDYID, USUBJID, AESEQ, AEDECOD, ASTDT, DTHFL, DTHCAUS, DTHDT]

columns:
  - name: STUDYID
    type: str
    label: Study Identifier
    derivation: AE.STUDYID

  - name: USUBJID
    type: str
    label: Unique Subject Identifier
    derivation: AE.USUBJID

  - name: AESEQ
    type: int
    label: Sequence Number
    derivation: AE.AESEQ

  - name: AEDECOD
    type: str
    label: Dictionary-Derived Term
    derivation: AE.AEDECOD

  - name: ASTDT
    type: date
    label: Analysis Start Date
    derivation: AE.ASTDT

  # The subject's fatal event: the latest by start date, ties broken by
  # the highest sequence number.
  - name: DTHAESEQ
    type: int
    label: Sequence Number of the Fatal Event
    derivation: DEATHEV.AESEQ

  - name: DTHCAUS
    type: str
    label: Cause of Death
    derivation: DEATHEV.AEDECOD

  # The fatal event's start date wins; demographics fills in otherwise.
  - name: DTHDT
    type: date
    label: Date of Death
    derivation:
      first_available:
        sources: [DEATHEV.ASTDT, DM.DTHDT]

  - name: DTHFL
    type: str
    label: Death Flag
    derivation:
      flag: "DTHDT IS NOT NULL"
    verifications:
      allowed_values:
        id: dthfl_allowed_values
        values: [Y]

verifications:
  - unique:
      id: unique_studyid_usubjid_aeseq
      columns: [STUDYID, USUBJID, AESEQ]
  - row_count:
      id: row_count
      min: 10
      max: 10
  - implies:
      id: fatal-event-carries-its-own-cause
      when: "AESEQ = DTHAESEQ"
      then: "DTHCAUS = AEDECOD AND DTHDT = ASTDT"
  - implies:
      id: no-cause-without-a-fatal-event
      when: "DTHCAUS IS NOT NULL"
      then: "DTHDT IS NOT NULL"
  - implies:
      id: death-date-marks-the-subject
      when: "DTHDT IS NOT NULL"
      then: "DTHFL = 'Y'"
