STUDYID,USUBJID,AESEQ,AEDECOD,ASTDT,DTHFL,DTHCAUS,DTHDT
EVAL-02,EVAL-02-201,1,FIRST EVENT,2026-01-20,Y,LAST EVENT,2026-01-25
EVAL-02,EVAL-02-201,2,LAST EVENT,2026-01-25,Y,LAST EVENT,2026-01-25
EVAL-02,EVAL-02-202,1,HEADACHE,2026-01-01,Y,,2026-01-30
EVAL-02,EVAL-02-203,1,FIRST TIED EVENT,2026-01-12,Y,LAST TIED EVENT,2026-01-12
EVAL-02,EVAL-02-203,2,LAST TIED EVENT,2026-01-12,Y,LAST TIED EVENT,2026-01-12
EVAL-02,EVAL-02-204,1,RASH,2026-01-15,,,
