STUDYID,USUBJID,AVISIT,TRSEQ,TRLNKID,TRGRPID,TRTESTCD,TRSTRESN,TRSTAT
YAMAA-01,YAMAA-01-101,BASELINE,1,L1,TARGET,LDIAM,40,
YAMAA-01,YAMAA-01-101,BASELINE,2,L2,TARGET,LDIAM,25,
YAMAA-01,YAMAA-01-101,BASELINE,3,L3,TARGET,LDIAM,15,
YAMAA-01,YAMAA-01-101,WEEK 8,4,L1,TARGET,LDIAM,30,
YAMAA-01,YAMAA-01-101,WEEK 8,5,L2,TARGET,LDIAM,20,
YAMAA-01,YAMAA-01-101,WEEK 8,6,L3,TARGET,LDIAM,,NOT DONE
YAMAA-01,YAMAA-01-102,BASELINE,1,L1,TARGET,LDIAM,22,
YAMAA-01,YAMAA-01-102,BASELINE,2,L2,TARGET,LDIAM,18,
YAMAA-01,YAMAA-01-102,WEEK 8,3,L1,TARGET,LDIAM,12,
YAMAA-01,YAMAA-01-102,WEEK 8,4,L2,TARGET,LDIAM,10,
YAMAA-01,YAMAA-01-103,BASELINE,1,L1,TARGET,LDIAM,50,
YAMAA-01,YAMAA-01-103,BASELINE,2,L2,NON-TARGET,LDIAM,14,
YAMAA-01,YAMAA-01-103,WEEK 8,3,L1,TARGET,LDIAM,45,
YAMAA-01,YAMAA-01-104,BASELINE,1,L1,TARGET,LDIAM,,NOT DONE
YAMAA-01,YAMAA-01-104,BASELINE,2,L2,TARGET,LDIAM,,NOT DONE
YAMAA-01,YAMAA-01-104,WEEK 8,3,L1,TARGET,LDIAM,0,
YAMAA-01,YAMAA-01-104,WEEK 8,4,L2,TARGET,LDIAM,30,
