STUDYID,USUBJID,EXSEQ,EPOCH,EXTRT,EXSTDTC,EXENDTC
YAMAA-01,YAMAA-01-101,1,TREATMENT 1,VITAMIN D3,2025-01-06,2025-01-16
YAMAA-01,YAMAA-01-101,2,TREATMENT 1,VITAMIN D3,2025-01-17,2025-01-26
YAMAA-01,YAMAA-01-101,3,TREATMENT 2,PLACEBO,2025-02-10,2025-03-02
YAMAA-01,YAMAA-01-101,3,TREATMENT 2,PLACEBO,2025-02-10,2025-03-02
YAMAA-01,YAMAA-01-102,1,TREATMENT 1,PLACEBO,2025-01-08,2025-01-28
YAMAA-01,YAMAA-01-102,2,TREATMENT 2,VITAMIN D3,2025-02-12,2025-02-22
YAMAA-01,YAMAA-01-102,3,TREATMENT 2,VITAMIN D3,2025-02-23,2025-03-04
YAMAA-01,YAMAA-01-103,1,TREATMENT 1,VITAMIN D3,2025-01-10,2025-01-20
YAMAA-01,YAMAA-01-104,2,TREATMENT 1,VITAMIN D3,2025-03-10,2025-03-15
YAMAA-01,YAMAA-01-104,5,TREATMENT 1,PLACEBO,2025-03-10,2025-03-20
YAMAA-01,YAMAA-01-104,1,TREATMENT 2,PLACEBO,2025-04-01,2025-04-15
YAMAA-01,YAMAA-01-105,1,TREATMENT 1,PLACEBO,2025-04-01,2025-04-10
YAMAA-01,YAMAA-01-105,2,TREATMENT 2,VITAMIN D3,2025-04-11,2025-04-25
YAMAA-01,YAMAA-01-106,1,TREATMENT 1,VITAMIN D3,2025-05-01,2025-05-10
YAMAA-01,YAMAA-01-106,2,TREATMENT 1,PLACEBO,,2025-05-12
YAMAA-01,YAMAA-01-106,3,TREATMENT 2,PLACEBO,2025-06-01,
YAMAA-01,YAMAA-01-106,4,TREATMENT 2,PLACEBO,2025-06-02,2025-06-20
