STUDYID,USUBJID,EXSEQ,EXTRT,EXDOSE,EXSTDTC,EXENDTC
CATH,CATH-UCSD-0001,2,VITAMIN D3,4000,2025-01-15T08:00:00,2025-01-28
CATH,CATH-UCSD-0001,1,VITAMIN D3,4000,2025-01-08,2025-01-14T18:00:00
CATH,CATH-UCSD-0002,2,PLACEBO,0,2025-02-15T09:00:00,2025-02-28T17:00:00
CATH,CATH-UCSD-0002,1,PLACEBO,0,2025-02-08T09:00:00,2025-02-14T17:00:00
CATH,CATH-UCSD-0005,1,VITAMIN D3,4000,2025-03-08T10:00:00,2025-03-21T16:00:00
