STUDYID,USUBJID,LBSEQ,LBTESTCD,LBTEST,VISIT,LBSTRESN
YAMAA-01,YAMAA-01-101,1,COMP1,Component 1,WEEK 1,0.1
YAMAA-01,YAMAA-01-101,2,COMP2,Component 2,WEEK 1,0.2
YAMAA-01,YAMAA-01-101,3,COMP3,Component 3,WEEK 1,0.3
YAMAA-01,YAMAA-01-102,1,COMP3,Component 3,WEEK 1,0.3
YAMAA-01,YAMAA-01-102,2,COMP2,Component 2,WEEK 1,0.2
YAMAA-01,YAMAA-01-102,3,COMP1,Component 1,WEEK 1,0.1
YAMAA-01,YAMAA-01-103,1,COMP1,Component 1,WEEK 1,0.1
YAMAA-01,YAMAA-01-104,1,COMP1,Component 1,WEEK 1,0.1
YAMAA-01,YAMAA-01-104,2,COMP2,Component 2,WEEK 1,
YAMAA-01,YAMAA-01-104,3,COMP3,Component 3,WEEK 1,0.3
YAMAA-01,YAMAA-01-105,1,COMP1,Component 1,WEEK 1,
YAMAA-01,YAMAA-01-105,2,COMP2,Component 2,WEEK 1,
