STUDYID,USUBJID,AESEQ,AEDECOD,AEOUT,ASTDT
EVAL-02,EVAL-02-201,1,FIRST EVENT,FATAL,2026-01-20
EVAL-02,EVAL-02-201,2,LAST EVENT,FATAL,2026-01-25
EVAL-02,EVAL-02-202,1,HEADACHE,RECOVERED,2026-01-01
EVAL-02,EVAL-02-203,1,FIRST TIED EVENT,FATAL,2026-01-12
EVAL-02,EVAL-02-203,2,LAST TIED EVENT,FATAL,2026-01-12
EVAL-02,EVAL-02-204,1,RASH,RECOVERED,2026-01-15
