STUDYID,USUBJID,AESEQ,TXNSEQ,TXNTYPE,AUDITDTC,AETERM,AESEV
CATH,CATH-UCSD-0001,1,1,INSERT,2025-01-10T09:00:00,HEADACHE,MILD
CATH,CATH-UCSD-0001,1,2,UPDATE,2025-01-12T14:00:00,HEADACHE,MODERATE
CATH,CATH-UCSD-0001,2,1,INSERT,2025-01-11T10:00:00,NAUSEA,MILD
CATH,CATH-UCSD-0001,2,2,REMOVE,2025-01-13T08:00:00,NAUSEA,MILD
CATH,CATH-UCSD-0002,1,1,INSERT,2025-02-05T11:00:00,RASH,MILD
CATH,CATH-UCSD-0002,1,2,UPDATE,2025-02-04T16:00:00,RASH,SEVERE
CATH,CATH-UCSD-0002,2,1,INSERT,2025-02-06T09:00:00,PRURITUS,MILD
CATH,CATH-UCSD-0002,2,2,UPDATE,2025-02-06T09:00:00,PRURITUS,MODERATE
