STUDYID,USUBJID,TRT01A,TRTSDT,TRTEDT,TRTDURD,SAFFL
CATH,CATH-UCSD-0001,VITAMIN D3,2025-01-08,2025-01-28,21,Y
CATH,CATH-UCSD-0002,PLACEBO,2025-02-08,2025-02-28,21,Y
CATH,SUBJECT-0003,VITAMIN D3,,,,N
CATH,CATH-UCSD-0004,NOT TREATED,,,,N
