STUDYID,USUBJID,QSSEQ,PARAMCD,AVISIT,AVISITN,AVAL
YAMAA-01,YAMAA-01-101,1,ACTOT,Baseline,0,22
YAMAA-01,YAMAA-01-101,2,ACTOT,Week 8,8,24
YAMAA-01,YAMAA-01-101,3,ACTOT,Week 16,16,25
YAMAA-01,YAMAA-01-101,4,ACTOT,Week 24,24,27
YAMAA-01,YAMAA-01-102,1,ACTOT,Baseline,0,30
YAMAA-01,YAMAA-01-102,2,ACTOT,Week 8,8,31
YAMAA-01,YAMAA-01-103,1,ACTOT,Baseline,0,18
YAMAA-01,YAMAA-01-103,2,ACTOT,Week 8,8,
YAMAA-01,YAMAA-01-103,3,ACTOT,Week 16,16,21
YAMAA-01,YAMAA-01-104,1,ACTOT,Week 16,16,15
YAMAA-01,YAMAA-01-104,2,ACTOT,Week 24,24,17
YAMAA-01,YAMAA-01-105,1,ACTOT,Baseline,0,26
YAMAA-01,YAMAA-01-105,2,ACTOT,Week 8,8,28
YAMAA-01,YAMAA-01-106,1,ACTOT,Baseline,0,0
