STUDYID,USUBJID,VSSEQ,VISIT,VSTESTCD,VSTEST,VSORRES,VSORRESU
CATH,CATH-UCSD-0001,1,SCREENING,HEIGHT,Height,168,cm
CATH,CATH-UCSD-0001,2,SCREENING,WEIGHT,Weight,72.5,kg
CATH,CATH-UCSD-0001,3,SCREENING,TEMP,Temperature,36.8,C
CATH,CATH-UCSD-0002,1,SCREENING,WEIGHT,Weight,175,LB
CATH,CATH-UCSD-0002,2,SCREENING,TEMP,Temperature,98.6,F
CATH,CATH-UCSD-0002,3,WEEK 2,TEMP,Temperature,,F
