STUDYID,USUBJID,ETCD,ELEMENT,EPOCH,SESTDTC,SEENDTC
YAMAA-01,YAMAA-01-101,SCRN,Screening,SCREENING,2026-01-02T00:00,2026-01-06T09:30
YAMAA-01,YAMAA-01-101,TRTA,Treatment A,TREATMENT,2026-01-06T09:30,2026-02-02T00:00
YAMAA-01,YAMAA-01-101,FUP,Follow-up,FOLLOW-UP,2026-02-02T00:00,2026-02-17T00:00
YAMAA-01,YAMAA-01-102,SCRN,Screening,SCREENING,2026-01-03T00:00,2026-01-06T09:30
YAMAA-01,YAMAA-01-102,TRTB,Treatment B,TREATMENT,2026-01-06T09:30,2026-01-20T00:00
YAMAA-01,YAMAA-01-102,FUP,Follow-up,FOLLOW-UP,2026-01-20T00:00,2026-02-17T00:00
YAMAA-01,YAMAA-01-103,SCRN,Screening,SCREENING,2026-03-01T00:00,2026-03-05T10:00
YAMAA-01,YAMAA-01-103,TRTA,Treatment A,TREATMENT,2026-03-05T10:00,2026-03-19T00:00
