STUDYID,USUBJID,AESEQ,ASTDT,TRTSDT,TRTEDT,TRTA,TRTEMFL
CATH-01,CATH-01-001,1,2024-01-09,2024-01-10,2024-01-20,VITAMIN D3,
CATH-01,CATH-01-001,2,2024-01-10,2024-01-10,2024-01-20,VITAMIN D3,Y
CATH-01,CATH-01-001,3,2024-01-20,2024-01-10,2024-01-20,VITAMIN D3,Y
CATH-01,CATH-01-001,4,2024-01-21,2024-01-10,2024-01-20,VITAMIN D3,
CATH-01,CATH-01-002,1,2024-02-03,2024-02-01,2024-02-05,PLACEBO,Y
CATH-01,CATH-01-003,1,2024-03-01,,,,
