DOMAIN,STUDYID,USUBJID,AESEQ,AETERM,AEDECOD,AEBODSYS
AE,YAMAA-01,YAMAA-01-101,1,Headache,Headache,Nervous system disorders
AE,YAMAA-01,YAMAA-01-101,2,Nausea,Nausea,Gastrointestinal disorders
AE,YAMAA-01,YAMAA-01-102,1,Dizziness,Dizziness,Nervous system disorders
AE,YAMAA-01,YAMAA-01-103,1,Cephalgia,Headache,Nervous system disorders
AE,YAMAA-01,YAMAA-01-104,1,Queasy,Nausea,Gastrointestinal disorders
AE,YAMAA-01,YAMAA-01-105,1,Felt a bit off,NOT CODED,NOT CODED
AE,YAMAA-01,YAMAA-01-106,1,,NOT CODED,NOT CODED
AE,YAMAA-01,YAMAA-01-107,1,headache,NOT CODED,NOT CODED
