STUDYID,USUBJID,VSSEQ,VISIT,VSTESTCD,VSTEST,VSORRES,VSORRESU
YAMAA-01,YAMAA-01-101,1,SCREENING,HEIGHT,Height,168.2,cm
YAMAA-01,YAMAA-01-101,2,SCREENING,WEIGHT,Weight,72.5,kg
YAMAA-01,YAMAA-01-101,3,SCREENING,TEMP,Temperature,36.8,C
YAMAA-01,YAMAA-01-101,4,WEEK 2,TEMP,Temperature,98.6,F
YAMAA-01,YAMAA-01-101,5,WEEK 2,TEMP,Temperature,37.0,C
YAMAA-01,YAMAA-01-102,1,SCREENING,WEIGHT,Weight,175,LB
YAMAA-01,YAMAA-01-102,2,SCREENING,TEMP,Temperature,100.4,F
YAMAA-01,YAMAA-01-102,3,WEEK 2,TEMP,Temperature,,F
YAMAA-01,YAMAA-01-102,4,WEEK 2,HEIGHT,Height,165.5,cm
YAMAA-01,YAMAA-01-103,1,BASELINE,HEIGHT,Height,172,cm
