DOMAIN,STUDYID,USUBJID,FASEQ,FATESTCD,FATEST,FAOBJ,FACAT,FASCAT,FAORRES,FAORRESU,FASTRESC,FASTRESN,FASTRESU,FASTAT,FATPT,FADTC
FA,VAX01,VAX01-1001,1,OCCUR,Occurrence Indicator,FATIGUE,REACTOGENICITY,SYSTEMIC,N,,N,,,,END DAY 1,2025-03-02
FA,VAX01,VAX01-1001,2,SEV,Severity/Intensity,FATIGUE,REACTOGENICITY,SYSTEMIC,NONE,,NONE,,,,END DAY 1,2025-03-02
FA,VAX01,VAX01-1001,3,OCCUR,Occurrence Indicator,HEADACHE,REACTOGENICITY,SYSTEMIC,Y,,Y,,,,END DAY 1,2025-03-02
FA,VAX01,VAX01-1001,4,SEV,Severity/Intensity,HEADACHE,REACTOGENICITY,SYSTEMIC,MILD,,MILD,,,,END DAY 1,2025-03-02
FA,VAX01,VAX01-1001,5,OCCUR,Occurrence Indicator,PAIN,REACTOGENICITY,ADMINISTRATION SITE,Y,,Y,,,,END DAY 1,2025-03-02
FA,VAX01,VAX01-1001,6,SEV,Severity/Intensity,PAIN,REACTOGENICITY,ADMINISTRATION SITE,MILD,,MILD,,,,END DAY 1,2025-03-02
FA,VAX01,VAX01-1001,7,OCCUR,Occurrence Indicator,REDNESS,REACTOGENICITY,ADMINISTRATION SITE,Y,,Y,,,,END DAY 1,2025-03-02
FA,VAX01,VAX01-1001,8,SEV,Severity/Intensity,REDNESS,REACTOGENICITY,ADMINISTRATION SITE,MODERATE,,MODERATE,,,,END DAY 1,2025-03-02
FA,VAX01,VAX01-1001,9,LDIAM,Longest Diameter,REDNESS,REACTOGENICITY,ADMINISTRATION SITE,35,mm,35,35,mm,,END DAY 1,2025-03-02
FA,VAX01,VAX01-1001,10,OCCUR,Occurrence Indicator,SWELLING,REACTOGENICITY,ADMINISTRATION SITE,N,,N,,,,END DAY 1,2025-03-02
FA,VAX01,VAX01-1001,11,SEV,Severity/Intensity,SWELLING,REACTOGENICITY,ADMINISTRATION SITE,NONE,,NONE,,,,END DAY 1,2025-03-02
FA,VAX01,VAX01-1001,12,OCCUR,Occurrence Indicator,FATIGUE,REACTOGENICITY,SYSTEMIC,Y,,Y,,,,END DAY 2,2025-03-03
FA,VAX01,VAX01-1001,13,SEV,Severity/Intensity,FATIGUE,REACTOGENICITY,SYSTEMIC,MODERATE,,MODERATE,,,,END DAY 2,2025-03-03
FA,VAX01,VAX01-1001,14,OCCUR,Occurrence Indicator,HEADACHE,REACTOGENICITY,SYSTEMIC,N,,N,,,,END DAY 2,2025-03-03
FA,VAX01,VAX01-1001,15,SEV,Severity/Intensity,HEADACHE,REACTOGENICITY,SYSTEMIC,NONE,,NONE,,,,END DAY 2,2025-03-03
FA,VAX01,VAX01-1001,16,OCCUR,Occurrence Indicator,PAIN,REACTOGENICITY,ADMINISTRATION SITE,N,,N,,,,END DAY 2,2025-03-03
FA,VAX01,VAX01-1001,17,SEV,Severity/Intensity,PAIN,REACTOGENICITY,ADMINISTRATION SITE,NONE,,NONE,,,,END DAY 2,2025-03-03
FA,VAX01,VAX01-1001,18,OCCUR,Occurrence Indicator,REDNESS,REACTOGENICITY,ADMINISTRATION SITE,Y,,Y,,,,END DAY 2,2025-03-03
FA,VAX01,VAX01-1001,19,SEV,Severity/Intensity,REDNESS,REACTOGENICITY,ADMINISTRATION SITE,MILD,,MILD,,,,END DAY 2,2025-03-03
FA,VAX01,VAX01-1001,20,LDIAM,Longest Diameter,REDNESS,REACTOGENICITY,ADMINISTRATION SITE,25,mm,25,25,mm,,END DAY 2,2025-03-03
FA,VAX01,VAX01-1001,21,OCCUR,Occurrence Indicator,SWELLING,REACTOGENICITY,ADMINISTRATION SITE,N,,N,,,,END DAY 2,2025-03-03
FA,VAX01,VAX01-1001,22,SEV,Severity/Intensity,SWELLING,REACTOGENICITY,ADMINISTRATION SITE,NONE,,NONE,,,,END DAY 2,2025-03-03
FA,VAX01,VAX01-1001,23,OCCUR,Occurrence Indicator,FATIGUE,REACTOGENICITY,SYSTEMIC,,,,,,NOT DONE,END DAY 3,2025-03-04
FA,VAX01,VAX01-1001,24,OCCUR,Occurrence Indicator,HEADACHE,REACTOGENICITY,SYSTEMIC,,,,,,NOT DONE,END DAY 3,2025-03-04
FA,VAX01,VAX01-1001,25,OCCUR,Occurrence Indicator,PAIN,REACTOGENICITY,ADMINISTRATION SITE,,,,,,NOT DONE,END DAY 3,2025-03-04
FA,VAX01,VAX01-1001,26,OCCUR,Occurrence Indicator,REDNESS,REACTOGENICITY,ADMINISTRATION SITE,,,,,,NOT DONE,END DAY 3,2025-03-04
FA,VAX01,VAX01-1001,27,OCCUR,Occurrence Indicator,SWELLING,REACTOGENICITY,ADMINISTRATION SITE,,,,,,NOT DONE,END DAY 3,2025-03-04
