schema_version: "1.0"
domain: ADLB
keys: [STUDYID, USUBJID, LBSEQ]
input:
  LB: {path: input/lb.csv, types: {LBSEQ: int, VISITNUM: int, LBSTRESN: float}}
  SUPPLB: input/supplb.csv
base: LB

intermediates:
  # The protocol endpoint qualifier, one supplemental record per
  # laboratory record. The supplemental key is the laboratory sequence
  # number written as eight-character, space-padded text.
  - id: SUPP_EP
    dataset: SUPPLB
    filter: "SUPPLB.QNAM = 'ENDPOINT'"
    key:
      STUDYID: LB.STUDYID
      USUBJID: LB.USUBJID
      IDVARVAL: {str_pad: {source: LB.LBSEQ, width: 8}}
    verification:
      unique: [STUDYID, USUBJID, IDVARVAL]
    no_match: null

  # Every laboratory record carries its own endpoint qualifier before the
  # window ranks the records of each subject and test: the endpoint
  # record first, then the latest visit.
  - id: EOT_RANK
    dataset: LB
    key: [STUDYID, USUBJID, LBSEQ]
    derivations:
      ENDPOINT: SUPP_EP.QVAL
      EOT_SEQ:
        row_number:
          window:
            group_by: [LB.USUBJID, LB.LBTESTCD]
            order_by:
              - {variable: ENDPOINT, direction: desc}
              - {variable: LB.VISITNUM, direction: desc}

output:
  path: adlb.csv
  columns: [STUDYID, USUBJID, LBSEQ, LBTESTCD, VISITNUM, AVAL, ENDPOINT, EOTFL]

columns:
  - name: STUDYID
    type: str
    label: Study Identifier
    derivation: LB.STUDYID

  - name: USUBJID
    type: str
    label: Unique Subject Identifier
    derivation: LB.USUBJID

  - name: LBSEQ
    type: int
    label: Sequence Number
    derivation: LB.LBSEQ

  - name: LBTESTCD
    type: str
    label: Lab Test or Examination Short Name
    derivation: LB.LBTESTCD

  - name: VISITNUM
    type: int
    label: Visit Number
    derivation: LB.VISITNUM

  - name: AVAL
    type: float
    label: Analysis Value
    derivation: LB.LBSTRESN

  - name: ENDPOINT
    type: str
    label: Protocol Endpoint Record
    derivation: EOT_RANK.ENDPOINT

  - name: EOTFL
    type: str
    label: End of Treatment Record Flag
    derivation:
      flag: "EOT_RANK.EOT_SEQ = 1"

verifications:
  - unique:
      columns: [STUDYID, USUBJID, LBSEQ]
  - row_count:
      min: 12
      max: 12
