STUDYID,USUBJID,FASEQ,FAOBJ,FALNKID,FACAT,FASCAT,FATESTCD,FATEST,FAORRES,FAORRESU,FASTRESC,FASTRESU
ABC123,001,1,RASH,1,SKIN FINDINGS,RASH SUPPLEMENT,BIOPSY,Lesion Biopsied,Y,,Y,
ABC123,001,2,RASH,1,SKIN FINDINGS,RASH SUPPLEMENT,DIAM,Lesion Diameter,5,mm,5,mm
ABC123,001,3,RASH,1,SKIN FINDINGS,RASH SUPPLEMENT,LOC,Location of Rash,ARM,,ARM,
ABC123,001,4,RASH,2,SKIN FINDINGS,RASH SUPPLEMENT,BIOPSY,Lesion Biopsied,N,,N,
ABC123,001,5,RASH,2,SKIN FINDINGS,RASH SUPPLEMENT,DIAM,Lesion Diameter,8,mm,8,mm
ABC123,001,6,RASH,2,SKIN FINDINGS,RASH SUPPLEMENT,LOC,Location of Rash,LEG,,LEG,
ABC123,002,1,RASH,1,SKIN FINDINGS,RASH SUPPLEMENT,BIOPSY,Lesion Biopsied,Y,,Y,
ABC123,002,2,RASH,1,SKIN FINDINGS,RASH SUPPLEMENT,DIAM,Lesion Diameter,3,mm,3,mm
ABC123,002,3,RASH,1,SKIN FINDINGS,RASH SUPPLEMENT,LOC,Location of Rash,FACE,,FACE,
