STUDYID,USUBJID,DSSEQ,DSDECOD,DSDTC
KN189,KN189-101,1,RANDOMIZED,2023-12-20
KN189,KN189-101,2,COMPLETED,2024-01-10
KN189,KN189-101,3,ADVERSE EVENT,2024-02-15
KN189,KN189-102,1,COMPLETED,
KN189,KN189-104,1,ADVERSE EVENT,2024-01-05
