STUDYID,USUBJID,VSSEQ,VSTESTCD,VSSTRESN,VSSTRESU
YAMAA-01,P7-101,1,SYSBP,120,mmHg
YAMAA-01,P7-101,2,DIABP,80,mmHg
YAMAA-01,P7-101,3,PULSE,72,beats/min
YAMAA-01,P7-102,1,SYSBP,ND,mmHg
YAMAA-01,P7-102,2,DIABP,78,mmHg
YAMAA-01,P7-102,3,TEMP,98.6,F
YAMAA-01,P7-102,4,,,
YAMAA-01,P7-103,1,PULSE,68,beats/min
