STUDYID,USUBJID,PARAMCD,VSSEQ,VISIT,VISITNUM,ADT,ADY,AVAL,AVISIT,AVISITN,ANL01FL
YAMAA-01,YAMAA-01-201,SYSBP,1,SCREENING,1,2025-01-02,-6,128,SCREENING,-1,Y
YAMAA-01,YAMAA-01-201,SYSBP,2,BASELINE,2,2025-01-08,1,132,BASELINE,0,Y
YAMAA-01,YAMAA-01-201,SYSBP,3,UNSCHEDULED,,2025-01-15,8,145,WEEK 2,2,
YAMAA-01,YAMAA-01-201,SYSBP,4,WEEK 2,3,2025-01-22,15,138,WEEK 2,2,
YAMAA-01,YAMAA-01-201,SYSBP,5,WEEK 4,4,2025-02-05,29,130,WEEK 4,4,
YAMAA-01,YAMAA-01-201,SYSBP,6,WEEK 8,5,2025-03-08,60,126,POST-TREATMENT,99,Y
YAMAA-01,YAMAA-01-201,SYSBP,7,UNSCHEDULED,,2025-01-09,2,134,WEEK 2,2,Y
YAMAA-01,YAMAA-01-201,SYSBP,8,WEEK 4,4,2025-01-29,22,131,WEEK 4,4,Y
YAMAA-01,YAMAA-01-202,SYSBP,1,BASELINE,2,2025-02-08,1,118,BASELINE,0,Y
YAMAA-01,YAMAA-01-202,SYSBP,2,WEEK 2,3,2025-02-21,14,122,WEEK 2,2,Y
YAMAA-01,YAMAA-01-202,SYSBP,3,WEEK 4,4,,,120,,,
YAMAA-01,YAMAA-01-202,SYSBP,4,UNSCHEDULED,,2025-02-21,14,119,WEEK 2,2,
YAMAA-01,YAMAA-01-202,SYSBP,5,WEEK 4,4,2025-03-01,22,124,WEEK 4,4,Y
YAMAA-01,YAMAA-01-202,SYSBP,6,FOLLOW-UP,6,2025-03-22,43,117,POST-TREATMENT,99,Y
YAMAA-01,YAMAA-01-203,SYSBP,1,BASELINE,2,2025-03-08,1,121,BASELINE,0,Y
YAMAA-01,YAMAA-01-202,SYSBP,7,SCREENING,1,,,,SCREENING,-1,
YAMAA-01,YAMAA-01-203,SYSBP,2,SCREENING,1,,,,SCREENING,-1,
YAMAA-01,YAMAA-01-203,SYSBP,3,WEEK 2,3,,,,WEEK 2,2,
YAMAA-01,YAMAA-01-203,SYSBP,4,WEEK 4,4,,,,WEEK 4,4,
