STUDYID,USUBJID,AESEQ,AEDECOD,AESEV
KN189,KN189-101,1,HEART ATTACK,SEVERE
KN189,KN189-101,2,NAUSEA,
KN189,KN189-101,3,HEADACHE,MODERATE
KN189,KN189-102,1,HEADACHE,MILD
KN189,KN189-102,2,VOMITING,
KN189,KN189-103,1,FATIGUE,
KN189,KN189-104,1,RASH,
KN189,KN189-104,2,NAUSEA,SEVERE
