STUDYID,USUBJID,ASEQ,VSSEQ,PARAMCD,ADT,AVAL,TRTSDT,HEIGHTBL
PILOT7,P7-001,1,1,HEIGHT,2025-01-01,170,2025-01-02,170
PILOT7,P7-001,2,2,WEIGHT,2025-01-01,68,2025-01-02,170
PILOT7,P7-001,3,3,WEIGHT,2025-01-22,69,2025-01-02,170
PILOT7,P7-001,4,4,WEIGHT,2025-02-12,70,2025-01-02,170
PILOT7,P7-002,1,,HEIGHT,2025-01-01,,2025-01-02,
PILOT7,P7-002,2,,WEIGHT,2025-01-01,,2025-01-02,
PILOT7,P7-002,3,1,WEIGHT,2025-01-22,79,2025-01-02,
PILOT7,P7-002,4,,WEIGHT,2025-02-12,79,2025-01-02,
PILOT7,P7-003,1,1,HEIGHT,2025-01-01,160,2025-01-02,160
PILOT7,P7-003,2,2,WEIGHT,2025-01-01,64,2025-01-02,160
PILOT7,P7-003,3,,WEIGHT,2025-01-22,64,2025-01-02,160
PILOT7,P7-003,4,,WEIGHT,2025-02-12,64,2025-01-02,160
