DOMAIN,STUDYID,USUBJID,FASEQ,FATESTCD,FATEST,FAOBJ,FACAT,FAORRES,FAORRESU,FASTRESC,FASTRESN,FASTRESU,FALNKID,FADTC
FA,RASH01,RASH01-2001,1,LOC,Location,Rash,AE,LEFT FOREARM,,LEFT FOREARM,,,AE-1,2025-04-02
FA,RASH01,RASH01-2001,2,SIZE,Size,Rash,AE,25,mm,25,25,mm,AE-1,2025-04-02
FA,RASH01,RASH01-2001,3,BIOPSY,Biopsied,Rash,AE,Y,,Y,,,AE-1,2025-04-02
FA,RASH01,RASH01-2001,4,LOC,Location,Rash,AE,RIGHT LEG,,RIGHT LEG,,,AE-2,2025-05-11
FA,RASH01,RASH01-2001,5,SIZE,Size,Rash,AE,40,mm,40,40,mm,AE-2,2025-05-11
FA,RASH01,RASH01-2001,6,BIOPSY,Biopsied,Rash,AE,N,,N,,,AE-2,2025-05-11
