schema_version: "1.0"
domain: LB
datasets:
  ODM: input/odm.csv
keys: [STUDYID, USUBJID, LBSEQ]

output:
  path: lb.csv
  columns: [DOMAIN, STUDYID, USUBJID, LBSEQ, VISIT, VISITNUM, LBTESTCD, LBTEST, LBCAT, LBSPEC, LBLOC, LBORRES, LBORRESU, LBSTRESC, LBSTRESN, LBSTRESU, LBSTAT, LBDTC]

columns:
  - name: DOMAIN
    type: str
    label: Domain Abbreviation
    derivation:
      literal: LB
    verifications:
      allowed_values:
        values: [LB]

  - name: STUDYID
    type: str
    label: Study Identifier
    derivation:
      source: ODM.StudyOID

  - name: USUBJID
    type: str
    label: Unique Subject Identifier
    derivation:
      source: ODM.SubjectKey

  - name: VISIT
    type: str
    label: Visit Name
    derivation:
      mapping:
        source: ODM.StudyEventOID
        dict:
          SE.NCT00789880.SCRN: SCREENING
          SE.NCT00789880.BL: BASELINE
          SE.NCT00789880.D21: DAY 21
          SE.NCT00789880.UNSCH: UNSCHEDULED
    verifications:
      allowed_values:
        values: [SCREENING, BASELINE, DAY 21, UNSCHEDULED]

  - name: VISITNUM
    type: int
    label: Visit Number
    derivation:
      mapping:
        source: ODM.StudyEventOID
        dict:
          SE.NCT00789880.SCRN: 1
          SE.NCT00789880.BL: 2
          SE.NCT00789880.D21: 3
          SE.NCT00789880.UNSCH: 99
    verifications:
      allowed_values:
        values: [1, 2, 3, 99]

  - name: LBTESTCD
    type: str
    label: Lab Test or Examination Short Name
    verifications:
      allowed_values:
        values: [VITD25OH, IL13, CAMPPRO]

  - name: LBTEST
    type: str
    label: Lab Test or Examination Name

  - name: LBCAT
    type: str
    label: Category for Lab Test

  - name: LBSPEC
    type: str
    label: Specimen Material Type
    verifications:
      allowed_values:
        values: [SERUM, SKIN BIOPSY, SALIVA, TAPE STRIP]

  - name: LBLOC
    type: str
    label: Location Used for Measurement
    verifications:
      allowed_values:
        values: [LESIONAL, NON-LESIONAL]

  - name: LBORRES
    type: str
    label: Result or Finding in Original Units
    derivation:
      source: ODM.Value
    verifications:
      not_missing: {}

  - name: LBORRESU
    type: str
    label: Original Units

  - name: LBSTRESC
    type: str
    label: Character Result/Finding in Std Format
    derivation:
      source: LBORRES

  - name: LBSTRESN
    type: float
    label: Numeric Result/Finding in Standard Units
    derivation:
      value:
        source: LBORRES
      conversion_failure: null
    verifications:
      range:
        min: 0

  - name: LBSTRESU
    type: str
    label: Standard Units

  - name: LBSTAT
    type: str
    label: Completion Status
    derivation:
      case:
        branches:
          - when: "LBORRES = 'NOT DONE'"
            then:
              literal: NOT DONE
    verifications:
      allowed_values:
        values: [NOT DONE]

  - name: LBDTC
    type: date
    label: Date/Time of Specimen Collection

  - name: LBSEQ
    type: int
    label: Sequence Number
    derivation:
      row_number:
        group_by: [STUDYID, USUBJID]
        order_by: [LBDTC, LBTESTCD, LBSPEC]

rows:
  - id: serum_vitamin_d
    dataset: ODM
    filter: "ODM.ItemGroupOID = 'IG.NCT00789880.LB' AND ODM.ItemOID = 'IT.NCT00789880.LB.VITD' AND ODM.Value IS NOT NULL"
    derivations:
      LBTESTCD:
        literal: VITD25OH
      LBTEST:
        literal: 25-Hydroxyvitamin D
      LBCAT:
        literal: CHEMISTRY
      LBSPEC:
        literal: SERUM
      LBLOC:
        literal: null
      LBORRESU:
        literal: ng/mL
      LBSTRESU:
        literal: ng/mL
      LBDTC:
        source: ODM.IT.NCT00789880.LB.LBDTC

  - id: biopsy_il13_lesional
    dataset: ODM
    filter: "ODM.ItemGroupOID = 'IG.NCT00789880.BX' AND ODM.ItemOID = 'IT.NCT00789880.BX.IL13_LES' AND ODM.Value IS NOT NULL"
    derivations:
      LBTESTCD:
        literal: IL13
      LBTEST:
        literal: Interleukin 13 mRNA
      LBCAT:
        literal: GENE EXPRESSION
      LBSPEC:
        literal: SKIN BIOPSY
      LBLOC:
        literal: LESIONAL
      LBORRESU:
        literal: CYCLE
      LBSTRESU:
        literal: CYCLE
      LBDTC:
        source: ODM.IT.NCT00789880.BX.BXDTC

  - id: biopsy_il13_nonlesional
    dataset: ODM
    filter: "ODM.ItemGroupOID = 'IG.NCT00789880.BX' AND ODM.ItemOID = 'IT.NCT00789880.BX.IL13_NONLES' AND ODM.Value IS NOT NULL"
    derivations:
      LBTESTCD:
        literal: IL13
      LBTEST:
        literal: Interleukin 13 mRNA
      LBCAT:
        literal: GENE EXPRESSION
      LBSPEC:
        literal: SKIN BIOPSY
      LBLOC:
        literal: NON-LESIONAL
      LBORRESU:
        literal: CYCLE
      LBSTRESU:
        literal: CYCLE
      LBDTC:
        source: ODM.IT.NCT00789880.BX.BXDTC

  - id: saliva_cathelicidin
    dataset: ODM
    filter: "ODM.ItemGroupOID = 'IG.NCT00789880.SAL' AND ODM.ItemOID = 'IT.NCT00789880.SAL.SAL_CAMP' AND ODM.Value IS NOT NULL"
    derivations:
      LBTESTCD:
        literal: CAMPPRO
      LBTEST:
        literal: Cathelicidin Protein
      LBCAT:
        literal: ANTIMICROBIAL PEPTIDE
      LBSPEC:
        literal: SALIVA
      LBLOC:
        literal: null
      LBORRESU:
        literal: ng/mL
      LBSTRESU:
        literal: ng/mL
      LBDTC:
        source: ODM.IT.NCT00789880.SAL.SALDTC

  - id: tape_cathelicidin_lesional
    dataset: ODM
    filter: "ODM.ItemGroupOID = 'IG.NCT00789880.TS' AND ODM.ItemOID = 'IT.NCT00789880.TS.TS_CAMP_LES' AND ODM.Value IS NOT NULL"
    derivations:
      LBTESTCD:
        literal: CAMPPRO
      LBTEST:
        literal: Cathelicidin Protein
      LBCAT:
        literal: ANTIMICROBIAL PEPTIDE
      LBSPEC:
        literal: TAPE STRIP
      LBLOC:
        literal: LESIONAL
      LBORRESU:
        literal: ng/mL
      LBSTRESU:
        literal: ng/mL
      LBDTC:
        source: ODM.IT.NCT00789880.TS.TSDTC

  - id: tape_cathelicidin_nonlesional
    dataset: ODM
    filter: "ODM.ItemGroupOID = 'IG.NCT00789880.TS' AND ODM.ItemOID = 'IT.NCT00789880.TS.TS_CAMP_NONLES' AND ODM.Value IS NOT NULL"
    derivations:
      LBTESTCD:
        literal: CAMPPRO
      LBTEST:
        literal: Cathelicidin Protein
      LBCAT:
        literal: ANTIMICROBIAL PEPTIDE
      LBSPEC:
        literal: TAPE STRIP
      LBLOC:
        literal: NON-LESIONAL
      LBORRESU:
        literal: ng/mL
      LBSTRESU:
        literal: ng/mL
      LBDTC:
        source: ODM.IT.NCT00789880.TS.TSDTC

verifications:
  - unique:
      columns: [STUDYID, USUBJID, LBSEQ]
  - row_count:
      min: 18
      max: 18
  - implies:
      id: not-done-result-has-status
      when: "LBORRES = 'NOT DONE'"
      then: "LBSTRESN IS NULL AND LBSTAT = 'NOT DONE'"
  - implies:
      id: completed-result-is-numeric
      when: "LBORRES <> 'NOT DONE'"
      then: "LBSTRESN IS NOT NULL AND LBSTAT IS NULL"
