STUDYID,USUBJID,LBTESTCD,LBTEST,LBDTC,LBSTRESN,LBSTRESU
YAMAA-01,YAMAA-01-101,ALT,Alanine Aminotransferase,2025-01-01,10,U/L
YAMAA-01,YAMAA-01-101,ALT,Alanine Aminotransferase,2025-01-08,15,U/L
YAMAA-01,YAMAA-01-101,AST,Aspartate Aminotransferase,2025-01-01,20,U/L
YAMAA-01,YAMAA-01-101,AST,Aspartate Aminotransferase,2025-01-08,18,U/L
YAMAA-01,YAMAA-01-102,ALT,Alanine Aminotransferase,2025-01-01,8,U/L
YAMAA-01,YAMAA-01-102,ALT,Alanine Aminotransferase,2025-01-08,12,U/L
YAMAA-01,YAMAA-01-103,ALT,Alanine Aminotransferase,2025-01-01,0,U/L
YAMAA-01,YAMAA-01-103,ALT,Alanine Aminotransferase,2025-01-08,5,U/L
YAMAA-01,YAMAA-01-103,ALT,Alanine Aminotransferase,2025-01-15,,U/L
YAMAA-01,YAMAA-01-105,ALT,Alanine Aminotransferase,2024-12-20,22,U/L
YAMAA-01,YAMAA-01-106,ALT,Alanine Aminotransferase,2025-01-02,30,U/L
YAMAA-01,YAMAA-01-106,ALT,Alanine Aminotransferase,2025-01-09,36,U/L
