STUDYID,USUBJID,OESEQ,OETESTCD,OELAT,OESTRESN
YAMAA-01,YAMAA-01-101,1,IOP,LEFT,18
YAMAA-01,YAMAA-01-101,2,IOP,RIGHT,24
YAMAA-01,YAMAA-01-102,1,IOP,LEFT,16
YAMAA-01,YAMAA-01-102,2,IOP,RIGHT,15
YAMAA-01,YAMAA-01-103,1,IOP,LEFT,21
YAMAA-01,YAMAA-01-103,2,IOP,RIGHT,20
YAMAA-01,YAMAA-01-103,3,IOP,BILATERAL,
YAMAA-01,YAMAA-01-104,1,IOP,LEFT,19
YAMAA-01,YAMAA-01-104,2,IOP,BILATERAL,
YAMAA-01,YAMAA-01-105,1,IOP,,22
