STUDYID,DOMAIN,USUBJID,AESEQ,AETERM,AESEV,AESER,AEREL,AESTDTC,AEENDTC,AEDECOD,AEPTCD,AELLT,AELLTCD,AEHLT,AEHLGT,AEBODSYS,AESOCCD,CODING_CONFIDENCE,CODING_TIER
ST.NCT00789880,AE,CATH-UCSD-0065,1,Procedural pain,MILD,N,UNRELATED,2010-10-09,2010-10-13,Pain,10033371,Pain,10033371,Pain and discomfort NEC,General system disorders NEC,General disorders and administration site conditions,10018065,0.9,SYNONYM_SUBSTRING
ST.NCT00789880,AE,CATH-UCSD-0081,1,Procedural pain,MILD,N,UNRELATED,2011-02-10,2011-02-15,Pain,10033371,Pain,10033371,Pain and discomfort NEC,General system disorders NEC,General disorders and administration site conditions,10018065,0.9,SYNONYM_SUBSTRING
