STUDYID,DOMAIN,USUBJID,EXSEQ,EXSTDTC,EXENDTC
ST.NCT00789880,EX,CATH-UCSD-0001,1,2009-11-14,2009-12-05
ST.NCT00789880,EX,CATH-UCSD-0002,1,2009-12-17,2010-01-07
ST.NCT00789880,EX,CATH-UCSD-0003,1,2010-04-14,2010-05-05
ST.NCT00789880,EX,CATH-UCSD-0004,1,2011-01-14,2011-02-04
ST.NCT00789880,EX,CATH-UCSD-0005,1,2010-07-15,2010-08-05
ST.NCT00789880,EX,CATH-UCSD-0006,1,2011-01-24,2011-02-14
ST.NCT00789880,EX,CATH-UCSD-0007,1,2010-12-14,2011-01-02
ST.NCT00789880,EX,CATH-UCSD-0008,1,2010-11-18,2010-12-09
ST.NCT00789880,EX,CATH-UCSD-0009,1,2010-01-04,2010-01-25
ST.NCT00789880,EX,CATH-UCSD-0010,1,2009-06-05,2009-06-26
ST.NCT00789880,EX,CATH-UCSD-0011,1,2010-03-22,2010-04-12
ST.NCT00789880,EX,CATH-UCSD-0012,1,2010-04-13,2010-05-04
ST.NCT00789880,EX,CATH-UCSD-0013,1,2010-06-09,2010-06-30
ST.NCT00789880,EX,CATH-UCSD-0014,1,2010-05-12,2010-06-06
ST.NCT00789880,EX,CATH-UCSD-0015,1,2009-08-09,2009-08-30
ST.NCT00789880,EX,CATH-UCSD-0016,1,2010-03-04,2010-03-25
ST.NCT00789880,EX,CATH-UCSD-0017,1,2010-06-08,2010-06-29
ST.NCT00789880,EX,CATH-UCSD-0018,1,2011-02-27,2011-03-20
ST.NCT00789880,EX,CATH-UCSD-0019,1,2010-04-02,2010-04-23
ST.NCT00789880,EX,CATH-UCSD-0020,1,2009-08-28,2009-09-18
ST.NCT00789880,EX,CATH-UCSD-0021,1,2009-09-15,2009-10-06
ST.NCT00789880,EX,CATH-UCSD-0022,1,2009-05-13,2009-06-03
ST.NCT00789880,EX,CATH-UCSD-0023,1,2009-06-13,2009-07-04
ST.NCT00789880,EX,CATH-UCSD-0024,1,2009-06-05,2009-06-26
ST.NCT00789880,EX,CATH-UCSD-0025,1,2011-01-12,2011-02-02
ST.NCT00789880,EX,CATH-UCSD-0026,1,2009-10-10,2009-10-31
ST.NCT00789880,EX,CATH-UCSD-0027,1,2009-10-25,2009-11-15
ST.NCT00789880,EX,CATH-UCSD-0028,1,2009-03-04,2009-03-25
ST.NCT00789880,EX,CATH-UCSD-0029,1,2009-11-18,2009-12-09
ST.NCT00789880,EX,CATH-UCSD-0030,1,2009-07-27,2009-08-17
ST.NCT00789880,EX,CATH-UCSD-0031,1,2009-04-30,2009-05-21
ST.NCT00789880,EX,CATH-UCSD-0032,1,2010-10-11,2010-11-01
ST.NCT00789880,EX,CATH-UCSD-0033,1,2010-02-26,2010-03-19
ST.NCT00789880,EX,CATH-UCSD-0034,1,2010-06-25,2010-07-10
ST.NCT00789880,EX,CATH-UCSD-0035,1,2009-09-15,2009-10-06
ST.NCT00789880,EX,CATH-UCSD-0036,1,2009-07-09,2009-07-30
ST.NCT00789880,EX,CATH-UCSD-0037,1,2011-02-22,2011-03-02
ST.NCT00789880,EX,CATH-UCSD-0038,1,2009-04-05,2009-04-26
ST.NCT00789880,EX,CATH-UCSD-0039,1,2009-04-05,2009-04-26
ST.NCT00789880,EX,CATH-UCSD-0040,1,2010-10-14,2010-11-04
ST.NCT00789880,EX,CATH-UCSD-0041,1,2009-04-14,2009-05-05
ST.NCT00789880,EX,CATH-UCSD-0042,1,2009-12-22,2010-01-12
ST.NCT00789880,EX,CATH-UCSD-0043,1,2009-08-17,2009-09-07
ST.NCT00789880,EX,CATH-UCSD-0044,1,2009-08-11,2009-09-01
ST.NCT00789880,EX,CATH-UCSD-0045,1,2009-08-13,2009-09-03
ST.NCT00789880,EX,CATH-UCSD-0046,1,2010-09-09,2010-09-30
ST.NCT00789880,EX,CATH-UCSD-0047,1,2009-12-16,2010-01-06
ST.NCT00789880,EX,CATH-UCSD-0048,1,2010-07-20,2010-08-10
ST.NCT00789880,EX,CATH-UCSD-0049,1,2010-04-27,2010-05-18
ST.NCT00789880,EX,CATH-UCSD-0050,1,2011-01-14,2011-02-04
ST.NCT00789880,EX,CATH-UCSD-0051,1,2011-01-03,2011-01-24
ST.NCT00789880,EX,CATH-UCSD-0052,1,2010-11-03,2010-11-24
ST.NCT00789880,EX,CATH-UCSD-0053,1,2009-08-04,2009-08-25
ST.NCT00789880,EX,CATH-UCSD-0054,1,2009-03-14,2009-04-04
ST.NCT00789880,EX,CATH-UCSD-0055,1,2009-08-16,2009-09-06
ST.NCT00789880,EX,CATH-UCSD-0056,1,2010-03-23,2010-04-06
ST.NCT00789880,EX,CATH-UCSD-0057,1,2009-04-11,2009-05-02
ST.NCT00789880,EX,CATH-UCSD-0058,1,2009-06-22,2009-07-13
ST.NCT00789880,EX,CATH-UCSD-0059,1,2009-07-29,2009-08-19
ST.NCT00789880,EX,CATH-UCSD-0060,1,2011-01-24,2011-02-14
ST.NCT00789880,EX,CATH-UCSD-0061,1,2009-03-24,2009-04-14
ST.NCT00789880,EX,CATH-UCSD-0062,1,2010-02-12,2010-03-05
ST.NCT00789880,EX,CATH-UCSD-0063,1,2009-11-17,2009-12-08
ST.NCT00789880,EX,CATH-UCSD-0064,1,2010-01-10,2010-02-02
ST.NCT00789880,EX,CATH-UCSD-0065,1,2010-09-16,2010-10-07
ST.NCT00789880,EX,CATH-UCSD-0066,1,2009-09-06,2009-09-27
ST.NCT00789880,EX,CATH-UCSD-0067,1,2009-08-24,2009-09-14
ST.NCT00789880,EX,CATH-UCSD-0068,1,2009-06-04,2009-06-25
ST.NCT00789880,EX,CATH-UCSD-0069,1,2009-11-01,2009-11-22
ST.NCT00789880,EX,CATH-UCSD-0070,1,2009-03-16,2009-04-06
ST.NCT00789880,EX,CATH-UCSD-0071,1,2009-11-08,2009-11-29
ST.NCT00789880,EX,CATH-UCSD-0072,1,2009-12-07,2009-12-28
ST.NCT00789880,EX,CATH-UCSD-0073,1,2009-05-13,2009-06-03
ST.NCT00789880,EX,CATH-UCSD-0074,1,2009-04-06,2009-04-27
ST.NCT00789880,EX,CATH-UCSD-0075,1,2009-09-27,2009-10-18
ST.NCT00789880,EX,CATH-UCSD-0076,1,2010-04-17,2010-05-08
ST.NCT00789880,EX,CATH-UCSD-0077,1,2009-09-02,2009-09-23
ST.NCT00789880,EX,CATH-UCSD-0078,1,2010-07-13,2010-08-03
ST.NCT00789880,EX,CATH-UCSD-0079,1,2009-03-20,2009-04-10
ST.NCT00789880,EX,CATH-UCSD-0080,1,2009-07-24,2009-08-14
ST.NCT00789880,EX,CATH-UCSD-0081,1,2011-02-10,2011-03-03
ST.NCT00789880,EX,CATH-UCSD-0082,1,2009-08-27,2009-09-17
