STUDYID,DOMAIN,USUBJID,LBSEQ,LBTESTCD,LBTEST,LBORRES,LBORRESU,LBSTRESN,LBSTRESU,LBDTC
STUDY01,LB,001,1,CA,Calcium,9.2,mg/dL,9.2,mg/dL,2025-01-01
STUDY01,LB,001,2,CREAT,Creatinine,0.8,mg/dL,0.8,mg/dL,2025-01-01
STUDY01,LB,001,3,CREAT,Creatinine,0.9,mg/dL,0.9,mg/dL,2025-01-08
STUDY01,LB,001,4,CREAT,Creatinine,NOT DONE,mg/dL,,mg/dL,2025-01-15
