STUDYID,USUBJID,CMSEQ,CMCAT,CMSCAT,CMTRT,CMSTDTC
PILOT7,P7-901,1,ON TREATMENT,CHEMOTHERAPY,DOCETAXEL,2025-03-10
PILOT7,P7-902,1,PRIOR TREATMENT,CHEMOTHERAPY,CARBOPLATIN,2024-11-04
PILOT7,P7-902,2,ON TREATMENT,CHEMOTHERAPY,GEMCITABINE,2025-05-05
PILOT7,P7-904,1,PRIOR TREATMENT,CHEMOTHERAPY,CISPLATIN,2024-10-22
PILOT7,P7-905,1,ON TREATMENT,IMMUNOTHERAPY,NIVOLUMAB,2025-06-01
PILOT7,P7-905,2,ON TREATMENT,CHEMOTHERAPY,PEMETREXED,2025-04-15
