STUDYID,USUBJID,VSSEQ,SERIES,AVISITN,AVALC
PILOT7,P7-901,1,A,,NULL-ORDER
PILOT7,P7-901,2,A,1,FIRST
PILOT7,P7-901,3,A,1,
PILOT7,P7-901,4,A,2,
PILOT7,P7-901,5,A,,
PILOT7,P7-901,6,,1,UNGROUPED
PILOT7,P7-901,7,,2,
