schema_version: "1.0"
domain: ADSL
input:
  DM: input/dm.csv
  DS: {path: input/ds.csv, types: {DSSEQ: int}}
base: DM
keys: [STUDYID, USUBJID]

output:
  path: adsl.csv
  columns: [STUDYID, USUBJID, EOSDT, EOSDECOD, EOSREAS, EOSSTT, DCSREAS]

columns:
  - name: STUDYID
    type: str
    label: Study Identifier
    derivation:
      source: DM.STUDYID

  - name: USUBJID
    type: str
    label: Unique Subject Identifier
    derivation:
      source: DM.USUBJID

  - name: EOSDT
    type: date
    label: End of Study Date
    derivation:
      aggregate:
        filter: "DS.DSCAT = 'DISPOSITION EVENT' AND DS.DSSTDTC IS NOT NULL"
        expr: "MAX(DS.DSSTDTC)"

  - name: EOSDECOD
    type: str
    label: End of Study Decoded Term
    derivation:
      source:
        variable: DS.DSDECOD
        multiple_matches:
          order_by: [DS.DSSTDTC, DS.DSSEQ]
          keep: last
          filter: "DS.DSCAT = 'DISPOSITION EVENT' AND DS.DSSTDTC IS NOT NULL"

  - name: EOSREAS
    type: str
    label: End of Study Reason
    derivation:
      source:
        variable: DS.DSTERM
        multiple_matches:
          order_by: [DS.DSSTDTC, DS.DSSEQ]
          keep: last
          filter: "DS.DSCAT = 'DISPOSITION EVENT' AND DS.DSSTDTC IS NOT NULL"

  - name: EOSSTT
    type: str
    label: End of Study Status
    derivation:
      case:
        branches:
          - when: "EOSDECOD = 'COMPLETED'"
            then:
              literal: COMPLETED
          - when: "EOSDECOD IS NOT NULL"
            then:
              literal: DISCONTINUED
        otherwise:
          literal: ONGOING
    verifications:
      allowed_values:
        values: [COMPLETED, DISCONTINUED, ONGOING]

  - name: DCSREAS
    type: str
    label: Reason for Discontinuation
    derivation:
      case:
        branches:
          - when: "EOSSTT = 'DISCONTINUED'"
            then:
              source: EOSREAS

verifications:
  - unique:
      columns: [STUDYID, USUBJID]
  - row_count:
      min: 4
      max: 4
  - implies:
      id: discontinuation-has-reason
      when: "EOSSTT = 'DISCONTINUED'"
      then: "DCSREAS IS NOT NULL"
