STUDYID,USUBJID,PARAMCD,PARAM,STARTDT,ADT,AVAL,CNSR,EVNTDESC,SRCDOM,SRCVAR,SRCSEQ
YAMAA-01,YAMAA-01-101,TTAE,Time to First Adverse Event,2026-01-01,2026-01-10,10,0,AE,ADAE,ASTDT,1
YAMAA-01,YAMAA-01-102,TTAE,Time to First Adverse Event,2026-01-01,2026-12-31,365,1,END OF STUDY,ADSL,EOSDT,
YAMAA-01,YAMAA-01-103,TTAE,Time to First Adverse Event,2026-01-01,2026-01-01,1,0,AE,ADAE,ASTDT,1
YAMAA-01,YAMAA-01-104,TTAE,Time to First Adverse Event,2026-12-31,2026-12-31,1,0,AE,ADAE,ASTDT,1
YAMAA-01,YAMAA-01-105,TTAE,Time to First Adverse Event,2026-01-01,2026-01-15,15,0,AE,ADAE,ASTDT,1
YAMAA-01,YAMAA-01-106,TTAE,Time to First Adverse Event,2026-01-01,,,1,END OF STUDY,ADSL,EOSDT,
YAMAA-01,YAMAA-01-107,TTAE,Time to First Adverse Event,2026-06-01,2026-06-01,1,1,END OF STUDY,ADSL,EOSDT,
YAMAA-01,YAMAA-01-108,TTAE,Time to First Adverse Event,,2026-01-10,,0,AE,ADAE,ASTDT,1
YAMAA-01,YAMAA-01-109,TTAE,Time to First Adverse Event,2026-01-01,2026-12-31,365,1,END OF STUDY,ADSL,EOSDT,
YAMAA-01,YAMAA-01-110,TTAE,Time to First Adverse Event,2026-03-01,2026-03-01,1,0,AE,ADAE,ASTDT,1
