DOMAIN,STUDYID,USUBJID,RFICDTC,RFXSTDTC,RFXENDTC,RFSTDTC,RFPENDTC,RFENDTC
DM,CATH,CATH-UCSD-0001,2025-01-02,2025-01-08,2025-01-28,2025-01-08,2025-02-03,2025-02-03
DM,CATH,CATH-UCSD-0002,2025-02-01,2025-02-08,2025-02-20,2025-02-08,2025-02-21,2025-02-21
DM,CATH,CATH-UCSD-0003,2025-03-01,,,,2025-03-02,
DM,CATH,CATH-UCSD-0004,2025-04-01,2025-04-05,2025-04-26,2025-04-05,2025-04-26,2025-04-26
DM,CATH,CATH-UCSD-0006,2025-06-01,,,,,
DM,CATH2,CATH-UCSD-0001,2025-05-01,2025-05-06,2025-05-19,2025-05-06,2025-05-20,2025-05-20
