STUDYID,USUBJID,PARAMCD,AVISIT,AVISITN,AVAL,DTYPE,EFFFL
YAMAA-01,YAMAA-01-101,ACTOT,Baseline,0,22,,Y
YAMAA-01,YAMAA-01-101,ACTOT,Week 8,8,24,,Y
YAMAA-01,YAMAA-01-101,ACTOT,Week 16,16,25,,Y
YAMAA-01,YAMAA-01-101,ACTOT,Week 24,24,27,,Y
YAMAA-01,YAMAA-01-102,ACTOT,Baseline,0,30,,Y
YAMAA-01,YAMAA-01-102,ACTOT,Week 8,8,31,,Y
YAMAA-01,YAMAA-01-102,ACTOT,Week 16,16,31,LOCF,Y
YAMAA-01,YAMAA-01-102,ACTOT,Week 24,24,31,LOCF,Y
YAMAA-01,YAMAA-01-103,ACTOT,Baseline,0,18,,Y
YAMAA-01,YAMAA-01-103,ACTOT,Week 8,8,18,LOCF,Y
YAMAA-01,YAMAA-01-103,ACTOT,Week 16,16,21,,Y
YAMAA-01,YAMAA-01-103,ACTOT,Week 24,24,21,LOCF,Y
YAMAA-01,YAMAA-01-104,ACTOT,Week 8,8,,LOCF,Y
YAMAA-01,YAMAA-01-104,ACTOT,Week 16,16,15,,Y
YAMAA-01,YAMAA-01-104,ACTOT,Week 24,24,17,,Y
YAMAA-01,YAMAA-01-105,ACTOT,Baseline,0,26,,N
YAMAA-01,YAMAA-01-105,ACTOT,Week 8,8,28,,N
YAMAA-01,YAMAA-01-106,ACTOT,Baseline,0,0,,Y
YAMAA-01,YAMAA-01-106,ACTOT,Week 8,8,0,LOCF,Y
YAMAA-01,YAMAA-01-106,ACTOT,Week 16,16,0,LOCF,Y
YAMAA-01,YAMAA-01-106,ACTOT,Week 24,24,0,LOCF,Y
