STUDYID,USUBJID,AESEQ,AEDECOD,AESTDY
YAMAA-01,02,2,Dizziness,
YAMAA-01,01,1,Headache,
YAMAA-01,01,4,Vomiting,1
YAMAA-01,02,1,Fatigue,3
YAMAA-01,01,3,Nausea,5
YAMAA-01,01,2,Nausea,5
YAMAA-01,03,1,Rash,7
YAMAA-01,04,1,Hives,7
