STUDYID,USUBJID,AESEQ,AEDECOD,AESTDTC,AESEV
PILOT7,P7-101,1,HEADACHE,2025-03-04T07:15:00,MILD
PILOT7,P7-101,2,HEADACHE,2025-03-04T11:45:00,MODERATE
PILOT7,P7-101,3,NAUSEA,2025-03-03T10:00:00,MILD
PILOT7,P7-101,4,NAUSEA,2025-03-06T22:30:00,MILD
PILOT7,P7-102,1,RASH,2025-03-04T08:00:00,MODERATE
PILOT7,P7-102,2,RASH,2025-03-05T10:00:00,MILD
PILOT7,P7-102,3,PRURITUS,,MILD
PILOT7,P7-102,4,PRURITUS,2025-03-06T09:00:00,MODERATE
PILOT7,P7-103,1,HEADACHE,2025-03-04T07:00:00,MILD
PILOT7,P7-103,2,HEADACHE,2025-03-07T10:00:00,MODERATE
PILOT7,P7-104,1,FATIGUE,2025-03-03T09:00:00,
PILOT7,P7-104,2,FATIGUE,2025-03-05T09:00:00,MODERATE
