STUDYID,USUBJID,AESEQ,AESTDTC,AESTDTM,AETERM,SCORE
PILOT7,P7-101,1,2025-01-15,,INF_REACTION,-1
PILOT7,P7-101,2,,2025-02-01T09:30,INF_REACTION,-2
PILOT7,P7-102,1,,,INF_REACTION,0
PILOT7,P7-103,1,2025-01-20,,INFXREACTION,0
