STUDYID,USUBJID,MHSEQ,MHTERM,MHSTYY,MHSTMM,MHENDTC,MHONGO,SCRFDTC
YAMAA-01,YAMAA-01-1001,1,HYPERTENSION,2015,,,Y,2021-06-01
YAMAA-01,YAMAA-01-1001,2,HYPERLIPIDEMIA,2019,03,2020-11-30,N,2021-06-01
YAMAA-01,YAMAA-01-1002,1,ASTHMA,2017,06,,N,2022-05-10
YAMAA-01,YAMAA-01-1002,2,ECZEMA,2020,,2022-02-14,N,2022-05-10
YAMAA-01,YAMAA-01-1003,1,MIGRAINE,2018,11,,Y,2021-09-20
YAMAA-01,YAMAA-01-1003,2,TYPE 2 DIABETES MELLITUS,,,,N,2021-09-20
