STUDYID,USUBJID,CMSEQ,CMTRT,CMCAT,CMSTDTC
PILOT7,P7-991,1,Ibuprofen,CONCOMITANT MEDICATION,2023-03-02
PILOT7,P7-991,2,Dexamethasone,RESCUE MEDICATION,2023-05-11
PILOT7,P7-991,3,Prednisone,RESCUE MEDICATION,2023-04-18
PILOT7,P7-992,1,Paracetamol,CONCOMITANT MEDICATION,2023-03-20
