STUDYID,USUBJID,EXTRT,EXSEQ,EXDOSE
YAMAA-01,YAMAA-01-101,Carboplatin,1,400
YAMAA-01,YAMAA-01-101,Carboplatin,2,350
YAMAA-01,YAMAA-01-101,Paclitaxel,1,175
YAMAA-01,YAMAA-01-102,Carboplatin,1,
YAMAA-01,YAMAA-01-102,Carboplatin,2,
YAMAA-01,YAMAA-01-103,Carboplatin,1,0
YAMAA-01,YAMAA-01-103,Carboplatin,2,
YAMAA-01,YAMAA-01-105,Carboplatin,1,
