STUDYID,USUBJID,VSSEQ,VSTESTCD,VSDTC,VSSTRESN
PILOT7,P7-001,1,HEIGHT,2025-01-01,170
PILOT7,P7-001,2,WEIGHT,2025-01-01,68
PILOT7,P7-001,3,WEIGHT,2025-01-22,69
PILOT7,P7-002,1,WEIGHT,2025-01-01,80
PILOT7,P7-002,2,WEIGHT,2025-01-22,79
PILOT7,P7-003,1,HEIGHT,2025-01-01,160
PILOT7,P7-003,2,WEIGHT,2025-01-01,64
