USUBJID,PARAMCD,AVISITN,AVAL,ADT,QSSEQ,ANL01FL
YAMAA-01-101,SYSBP,1,118,2026-01-06,101,Y
YAMAA-01-101,SYSBP,2,,2026-01-13,102,Y
YAMAA-01-101,SYSBP,3,,2026-01-20,103,Y
YAMAA-01-101,SYSBP,4,126,,104,Y
YAMAA-01-101,SYSBP,2,142,2026-01-13,105,N
YAMAA-01-102,SYSBP,1,132,2026-02-03,201,Y
YAMAA-01-102,SYSBP,1,128,2026-02-03,202,Y
YAMAA-01-102,SYSBP,2,0,2026-02-10,203,Y
YAMAA-01-103,SYSBP,1,140,2026-03-04,301,Y
YAMAA-01-103,SYSBP,2,136,2026-03-11,302,Y
YAMAA-01-104,SYSBP,1,121,2026-04-08,401,Y
