DOMAIN,STUDYID,USUBJID,LBSEQ,LBTESTCD,LBTEST,LBCAT,LBORRES,LBDTC
LB,PILOT7,P7-001,1,ALT,Alanine Aminotransferase,CHEMISTRY,32,2025-01-02
LB,PILOT7,P7-001,2,HGB,Hemoglobin,HEMATOLOGY,11.4,2025-01-03
LB,PILOT7,P7-001,3,TSH,Thyrotropin,THYROID,2.1,2025-01-04
LB,PILOT7,P7-001,4,URPROT,Urine Protein,URINALYSIS,NEGATIVE,2025-01-05
LB,PILOT7,P7-001,5,FIB,Fibrinogen,COAGULATION,7.8,
