STUDYID,USUBJID,PARAMCD,RSSEQ,ADT,AVALC,CONFIRMED
PILOT7,P7-201,CONFRESP,1,2025-01-01,PR,Y
PILOT7,P7-201,CONFRESP,2,2025-02-12,PR,N
PILOT7,P7-202,CONFRESP,1,2025-01-01,PR,N
PILOT7,P7-202,CONFRESP,2,2025-02-12,SD,N
PILOT7,P7-203,CONFRESP,1,2025-01-01,PR,N
PILOT7,P7-203,CONFRESP,2,2025-01-15,PR,N
PILOT7,P7-204,CONFRESP,1,2025-01-01,PR,N
PILOT7,P7-205,CONFRESP,1,2025-01-01,PD,Y
PILOT7,P7-205,CONFRESP,2,2025-02-12,NE,N
