DOMAIN,STUDYID,USUBJID,VSSEQ,VSTESTCD,VSORRES,VSDTC,EPOCH
VS,YAMAA-01,YAMAA-01-101,1,SYSBP,128,2026-01-06T08:00,SCREENING
VS,YAMAA-01,YAMAA-01-101,2,SYSBP,132,2026-01-06T10:30,TREATMENT
VS,YAMAA-01,YAMAA-01-101,3,SYSBP,130,2026-01-06,SCREENING
VS,YAMAA-01,YAMAA-01-101,4,SYSBP,126,,
VS,YAMAA-01,YAMAA-01-101,5,SYSBP,134,2026-02-02T00:00,FOLLOW-UP
VS,YAMAA-01,YAMAA-01-101,6,SYSBP,120,2026-01,
VS,YAMAA-01,YAMAA-01-102,1,SYSBP,118,2026-01-06T09:30,TREATMENT
VS,YAMAA-01,YAMAA-01-102,2,SYSBP,122,2026-01-02,
VS,YAMAA-01,YAMAA-01-102,3,SYSBP,125,2026-01-25,FOLLOW-UP
VS,YAMAA-01,YAMAA-01-103,1,SYSBP,135,2026-03-05T14:00,TREATMENT
