DOMAIN,STUDYID,USUBJID,FASEQ,FATESTCD,FATEST,FAOBJ,FACAT,FAORRES,FAORRESU,FASTRESC,FASTAT,FATPT,FADTC
FA,YAMAA-01,YAMAA-01-0001,1,OCCUR,Occurrence Indicator,Injection site redness,REACTOGENICITY,Y,,Y,,END DAY 1,2025-01-01
FA,YAMAA-01,YAMAA-01-0001,2,SEV,Severity/Intensity,Injection site redness,REACTOGENICITY,MODERATE,,MODERATE,,END DAY 1,2025-01-01
FA,YAMAA-01,YAMAA-01-0001,3,LDIAM,Longest Diameter,Injection site redness,REACTOGENICITY,25,mm,25,,END DAY 1,2025-01-01
FA,YAMAA-01,YAMAA-01-0001,4,OCCUR,Occurrence Indicator,Fatigue,REACTOGENICITY,N,,N,,END DAY 1,2025-01-01
FA,YAMAA-01,YAMAA-01-0001,5,OCCUR,Occurrence Indicator,Injection site redness,REACTOGENICITY,Y,,Y,,END DAY 2,2025-01-02
FA,YAMAA-01,YAMAA-01-0001,6,SEV,Severity/Intensity,Injection site redness,REACTOGENICITY,,,,NOT DONE,END DAY 2,2025-01-02
FA,YAMAA-01,YAMAA-01-0001,7,LDIAM,Longest Diameter,Injection site redness,REACTOGENICITY,10,mm,10,,END DAY 2,2025-01-02
FA,YAMAA-01,YAMAA-01-0002,1,OCCUR,Occurrence Indicator,Fatigue,REACTOGENICITY,Y,,Y,,END DAY 1,2025-02-01
FA,YAMAA-01,YAMAA-01-0002,2,SEV,Severity/Intensity,Fatigue,REACTOGENICITY,MILD,,MILD,,END DAY 1,2025-02-01
