STUDYID,USUBJID,ARMCD,ARM,RFICDTC,RFSTDTC,RFXSTDTC,RFXENDTC
YAMAA-01,001,A,Treatment A,2026-01-02,2026-01-05,2026-01-06,2026-02-17
YAMAA-01,002,B,Treatment B,2026-01-03,2026-01-05,2026-01-06,2026-02-17
