STUDYID,USUBJID,EXTRT,EXDOSE,EXDOSU,EXSTDTC,EXENDTC
YAMAA-01,001,TREATMENT A,100,mg,2026-01-06,2026-01-06
YAMAA-01,001,TREATMENT A,100,mg,2026-01-07,2026-01-07
YAMAA-01,001,TREATMENT A,100,mg,2026-01-08,2026-01-08
YAMAA-01,001,TREATMENT A,100,mg,2026-01-09,2026-01-09
YAMAA-01,001,TREATMENT A,100,mg,2026-01-10,2026-01-10
YAMAA-01,001,TREATMENT A,100,mg,2026-01-11,2026-01-11
YAMAA-01,001,TREATMENT A,100,mg,2026-01-12,2026-01-12
YAMAA-01,001,TREATMENT A,100,mg,2026-01-13,2026-01-13
YAMAA-01,001,TREATMENT A,100,mg,2026-01-14,2026-01-14
YAMAA-01,001,TREATMENT A,100,mg,2026-01-15,2026-01-15
YAMAA-01,001,TREATMENT A,100,mg,2026-01-16,2026-01-16
YAMAA-01,001,TREATMENT A,100,mg,2026-01-17,2026-01-17
YAMAA-01,001,TREATMENT A,100,mg,2026-01-18,2026-01-18
YAMAA-01,001,TREATMENT A,100,mg,2026-01-19,2026-01-19
YAMAA-01,001,TREATMENT A,100,mg,2026-01-20,2026-01-20
YAMAA-01,001,TREATMENT A,100,mg,2026-01-21,2026-01-21
YAMAA-01,001,TREATMENT A,100,mg,2026-01-22,2026-01-22
YAMAA-01,001,TREATMENT A,100,mg,2026-01-23,2026-01-23
YAMAA-01,001,TREATMENT A,100,mg,2026-01-24,2026-01-24
YAMAA-01,001,TREATMENT A,100,mg,2026-01-25,2026-01-25
YAMAA-01,001,TREATMENT A,100,mg,2026-01-26,2026-01-26
YAMAA-01,001,TREATMENT A,100,mg,2026-01-27,2026-01-27
YAMAA-01,001,TREATMENT A,100,mg,2026-01-28,2026-01-28
YAMAA-01,001,TREATMENT A,100,mg,2026-01-29,2026-01-29
YAMAA-01,001,TREATMENT A,100,mg,2026-01-30,2026-01-30
YAMAA-01,001,TREATMENT A,100,mg,2026-01-31,2026-01-31
YAMAA-01,001,TREATMENT A,100,mg,2026-02-01,2026-02-01
YAMAA-01,001,TREATMENT A,100,mg,2026-02-02,2026-02-02
YAMAA-01,002,TREATMENT B,100,mg,2026-01-06,2026-01-06
YAMAA-01,002,TREATMENT B,100,mg,2026-01-07,2026-01-07
YAMAA-01,002,TREATMENT B,100,mg,2026-01-08,2026-01-08
YAMAA-01,002,TREATMENT B,100,mg,2026-01-09,2026-01-09
YAMAA-01,002,TREATMENT B,100,mg,2026-01-10,2026-01-10
YAMAA-01,002,TREATMENT B,100,mg,2026-01-11,2026-01-11
YAMAA-01,002,TREATMENT B,100,mg,2026-01-12,2026-01-12
YAMAA-01,002,TREATMENT B,100,mg,2026-01-13,2026-01-13
YAMAA-01,002,TREATMENT B,100,mg,2026-01-14,2026-01-14
YAMAA-01,002,TREATMENT B,100,mg,2026-01-15,2026-01-15
YAMAA-01,002,TREATMENT B,100,mg,2026-01-16,2026-01-16
YAMAA-01,002,TREATMENT B,100,mg,2026-01-17,2026-01-17
YAMAA-01,002,TREATMENT B,100,mg,2026-01-18,2026-01-18
YAMAA-01,002,TREATMENT B,100,mg,2026-01-19,2026-01-19
YAMAA-01,002,TREATMENT B,100,mg,2026-01-20,2026-01-20
