STUDYID,USUBJID,LBSEQ,LBTESTCD,SEX,LBSTRESN
PILOT7,P7-501,1,ALT,M,15
PILOT7,P7-502,1,ALT,F,55
PILOT7,P7-503,1,HGB,M,12.5
PILOT7,P7-504,1,HGB,F,12.5
PILOT7,P7-505,1,CREAT,M,0.9
PILOT7,P7-506,1,POTASSIUM,F,3.2
PILOT7,P7-507,1,ALT,M,
PILOT7,P7-508,1,GLUCOSE,M,5
