STUDYID,USUBJID,VISIT,QSSEQ,QSCAT,QSTESTCD,QSTEST,QSSTRESN
MSQ1,MSQ1-01,BASELINE,1,PHYSICAL FUNCTIONING SCALE,F101,Difficulty lifting heavy objects,2
MSQ1,MSQ1-01,BASELINE,2,PHYSICAL FUNCTIONING SCALE,F102,Difficulty walking a long distance,2
MSQ1,MSQ1-01,BASELINE,3,PHYSICAL FUNCTIONING SCALE,F103,Difficulty walking a short distance,2
MSQ1,MSQ1-01,BASELINE,4,PHYSICAL FUNCTIONING SCALE,F104,Needing to rest during the day,2
MSQ1,MSQ1-01,BASELINE,5,ROLE FUNCTIONING SCALE,F201,Limits in doing work or daily activities,2
MSQ1,MSQ1-01,BASELINE,6,ROLE FUNCTIONING SCALE,F202,Limits in pursuing hobbies or leisure activities,3
MSQ1,MSQ1-01,BASELINE,7,FATIGUE AND SLEEP SYMPTOM SCALE,S01,Feeling tired during the day,2
MSQ1,MSQ1-01,BASELINE,8,FATIGUE AND SLEEP SYMPTOM SCALE,S02,Trouble falling asleep,2
MSQ1,MSQ1-01,BASELINE,9,GLOBAL HEALTH SCALE,G01,Rating of overall health,4
MSQ1,MSQ1-01,BASELINE,10,GLOBAL HEALTH SCALE,G02,Rating of overall quality of life,5
MSQ1,MSQ1-02,BASELINE,1,PHYSICAL FUNCTIONING SCALE,F101,Difficulty lifting heavy objects,3
MSQ1,MSQ1-02,BASELINE,2,ROLE FUNCTIONING SCALE,F201,Limits in doing work or daily activities,4
MSQ1,MSQ1-02,BASELINE,3,FATIGUE AND SLEEP SYMPTOM SCALE,S01,Feeling tired during the day,
MSQ1,MSQ1-02,BASELINE,4,GLOBAL HEALTH SCALE,G01,Rating of overall health,7
