STUDYID,USUBJID,VSSEQ,VSTESTCD,VSCAT,VSSTRESN,VSSTRESU
PROJ1,SUBJ1,1,TEMP,REACTOGENICITY,38.5,C
PROJ1,SUBJ1,2,TEMP,REACTOGENICITY,37.5,C
PROJ1,SUBJ1,3,TEMP,REACTOGENICITY,,C
PROJ1,SUBJ1,4,SYSBP,REACTOGENICITY,120,mmHg
PROJ1,SUBJ1,5,TEMP,OTHER,38.1,C
