STUDYID,USUBJID,VSSEQ,VISIT,VSTPT,VSTESTCD,VSORRES,VSORRESU,VSDTC
YAMAA-01,YAMAA-01-001,1,DAY 1,PRE-DOSE,PULSE,72,beats/min,2025-01-08T08:45:00
YAMAA-01,YAMAA-01-001,2,DAY 1,PRE-DOSE,SYSBP,118,mmHg,2025-01-08T08:45:00
YAMAA-01,YAMAA-01-001,3,DAY 1,PRE-DOSE,DIABP,76,mmHg,2025-01-08T08:45:00
YAMAA-01,YAMAA-01-001,4,DAY 1,30 MIN POST-DOSE,PULSE,74,beats/min,2025-01-08T09:31:00
YAMAA-01,YAMAA-01-001,5,DAY 1,30 MIN POST-DOSE,SYSBP,120,mmHg,2025-01-08T09:31:00
YAMAA-01,YAMAA-01-001,6,DAY 1,30 MIN POST-DOSE,DIABP,78,mmHg,2025-01-08T09:31:00
YAMAA-01,YAMAA-01-001,7,DAY 1,1 H POST-DOSE,PULSE,70,beats/min,2025-01-08T10:02:00
YAMAA-01,YAMAA-01-001,8,DAY 1,1 H POST-DOSE,SYSBP,116,mmHg,2025-01-08T10:02:00
YAMAA-01,YAMAA-01-001,9,DAY 1,1 H POST-DOSE,DIABP,74,mmHg,2025-01-08T10:02:00
YAMAA-01,YAMAA-01-001,10,DAY 1,4 H POST-DOSE,PULSE,68,beats/min,2025-01-08T13:05:00
YAMAA-01,YAMAA-01-001,11,DAY 1,4 H POST-DOSE,SYSBP,114,mmHg,2025-01-08T13:05:00
YAMAA-01,YAMAA-01-001,12,DAY 1,4 H POST-DOSE,DIABP,72,mmHg,2025-01-08T13:05:00
YAMAA-01,YAMAA-01-002,1,DAY 1,PRE-DOSE,PULSE,80,beats/min,2025-01-15T08:44:00
YAMAA-01,YAMAA-01-002,2,DAY 1,PRE-DOSE,SYSBP,124,mmHg,2025-01-15T08:44:00
YAMAA-01,YAMAA-01-002,3,DAY 1,PRE-DOSE,DIABP,82,mmHg,2025-01-15T08:44:00
YAMAA-01,YAMAA-01-002,4,DAY 1,30 MIN POST-DOSE,PULSE,88,beats/min,2025-01-15T09:52:00
YAMAA-01,YAMAA-01-002,5,DAY 1,30 MIN POST-DOSE,SYSBP,128,mmHg,2025-01-15T09:52:00
YAMAA-01,YAMAA-01-002,6,DAY 1,30 MIN POST-DOSE,DIABP,84,mmHg,2025-01-15T09:52:00
YAMAA-01,YAMAA-01-002,7,DAY 1,1 H POST-DOSE,PULSE,78,beats/min,2025-01-15T10:03:00
YAMAA-01,YAMAA-01-002,8,DAY 1,1 H POST-DOSE,SYSBP,122,mmHg,2025-01-15T10:03:00
YAMAA-01,YAMAA-01-002,9,DAY 1,1 H POST-DOSE,DIABP,80,mmHg,2025-01-15T10:03:00
YAMAA-01,YAMAA-01-002,10,DAY 1,4 H POST-DOSE,PULSE,76,beats/min,2025-01-15T13:01:00
YAMAA-01,YAMAA-01-002,11,DAY 1,4 H POST-DOSE,SYSBP,120,mmHg,2025-01-15T13:01:00
YAMAA-01,YAMAA-01-002,12,DAY 1,4 H POST-DOSE,DIABP,78,mmHg,2025-01-15T13:01:00
