schema_version: "1.0"
domain: EX
keys: [STUDYID, USUBJID, EXSEQ]
input:
  EX_RAW: {path: input/ex_raw.csv, types: {EXSTDTC: date, EXENDTC: date}}

output:
  path: ex.csv
  columns: [DOMAIN, STUDYID, USUBJID, EXSEQ, EXTRT, EXDOSE, EXDOSU, EXSTDTC,
            EXENDTC, EXADJ]

columns:
  - name: DOMAIN
    type: str
    label: Domain Abbreviation
    derivation: {literal: EX}

  - name: STUDYID
    type: str
    label: Study Identifier
    derivation: EX_RAW.STUDYID

  - name: USUBJID
    type: str
    label: Unique Subject Identifier
    derivation: EX_RAW.USUBJID

  # Per subject, by start date and then by treatment name, so components
  # given on the same day keep a fixed order.
  - name: EXSEQ
    type: int
    label: Sequence Number
    derivation:
      row_number:
        window:
          group_by: [STUDYID, USUBJID]
          order_by: [EX_RAW.EXSTDTC, EX_RAW.EXTRT]

  - name: EXTRT
    type: str
    label: Name of Treatment
    derivation: EX_RAW.EXTRT

  - name: EXDOSE
    type: float
    label: Dose
    derivation: EX_RAW.EXDOSE

  - name: EXDOSU
    type: str
    label: Dose Units
    derivation: EX_RAW.EXDOSU

  - name: EXSTDTC
    type: date
    label: Start Date/Time of Treatment
    derivation: EX_RAW.EXSTDTC

  - name: EXENDTC
    type: date
    label: End Date/Time of Treatment
    derivation: EX_RAW.EXENDTC

  - name: EXADJ
    type: str
    label: Reason for Dose Adjustment
    derivation: EX_RAW.EXADJ

verifications:
  - row_count:
      min: 9
      max: 9
  - assert:
      id: every-administration-has-dose-and-unit
      require: "EXDOSE IS NOT NULL AND EXDOSU IS NOT NULL"
