STUDYID,USUBJID,SUBJID,SITEID,ARMCD,ACTARM,COUNTRY
CATH,CATH-UCSD-0001,0001,UCSD,VITD,Vitamin D3,usa
CATH,CATH-UCSD-0002,0002,UCSD,PLAC,Placebo,CAN
CATH,SUBJECT-0003,0003,UCSD,VITD,Vitamin D3,deu
CATH,CATH-UCSD-0004,,UCSD,,,
