STUDYID,USUBJID,DSSEQ,DSCAT,DSDECOD,DSTERM,DSSTDTC
CATH,CATH-UCSD-0001,2,DISPOSITION EVENT,COMPLETED,COMPLETED STUDY,2025-01-29
CATH,CATH-UCSD-0001,1,PROTOCOL MILESTONE,RANDOMIZED,RANDOMIZED,2025-01-08
CATH,CATH-UCSD-0002,3,DISPOSITION EVENT,DISCONTINUED,ADVERSE EVENT,2025-02-20
CATH,CATH-UCSD-0002,1,PROTOCOL MILESTONE,RANDOMIZED,RANDOMIZED,2025-02-08
CATH,CATH-UCSD-0002,2,DISPOSITION EVENT,DISCONTINUED,WITHDRAWAL BY SUBJECT,2025-02-20
CATH,CATH-UCSD-0004,1,DISPOSITION EVENT,SCREEN FAILURE,ELIGIBILITY CRITERIA NOT MET,2025-03-02
