STUDYID,USUBJID,EXSEQ,EXTRT,EXDOSE,EXSTDTC,EXENDTC
CATH,CATH-UCSD-0001,2,VITAMIN D3,4000,2025-01-15,2025-01-28
CATH,CATH-UCSD-0001,1,VITAMIN D3,4000,2025-01-08,2025-01-14
CATH,CATH-UCSD-0002,2,PLACEBO,0,2025-02-15,2025-02-28
CATH,CATH-UCSD-0002,1,PLACEBO,0,2025-02-08,2025-02-14
