LB:
  type: FINDINGS
  definitions:
    STUDYID:
      source: "StudyOID"
    DOMAIN:
      literal: "LB"
    USUBJID:
      source: "SubjectKey"
    LBSEQ:
      group: ["USUBJID"]
    EPOCH:
      literal: "TREATMENT"
    LBDY:
      function_: "calculate_study_day"
      args: ["LBDTC", "_DM_REF.RFSTDTC"]

  columns:
    # --- SERUM ---
    - name: VITD25OH
      formoid: ["FO.NCT00789880.LB"]
      itemoid: ["IT.NCT00789880.LB.VITD"]
      LBTESTCD: {literal: "VITD25OH"}
      LBTEST: {literal: "25-Hydroxyvitamin D"}
      LBCAT: {literal: "CHEMISTRY"}
      LBSPEC: {literal: "SERUM"}
      LBLOC: {literal: ""}
      LBORRES: {source: "IT.NCT00789880.LB.VITD"}
      LBORRESU: {literal: "ng/mL"}
      LBSTRESC: {source: "IT.NCT00789880.LB.VITD"}
      LBSTRESN: {source: "IT.NCT00789880.LB.VITD", type: "float"}
      LBSTRESU: {literal: "ng/mL"}
      LBDTC: {source: "IT.NCT00789880.LB.LBDTC"}
      
    - name: CALCIUM
      formoid: ["FO.NCT00789880.LB"]
      itemoid: ["IT.NCT00789880.LB.CALCIUM"]
      LBTESTCD: {literal: "CA"}
      LBTEST: {literal: "Calcium"}
      LBCAT: {literal: "CHEMISTRY"}
      LBSPEC: {literal: "SERUM"}
      LBLOC: {literal: ""}
      LBORRES: {source: "IT.NCT00789880.LB.CALCIUM"}
      LBORRESU: {literal: "mg/dL"}
      LBSTRESC: {source: "IT.NCT00789880.LB.CALCIUM"}
      LBSTRESN: {source: "IT.NCT00789880.LB.CALCIUM", type: "float"}
      LBSTRESU: {literal: "mg/dL"}
      LBDTC: {source: "IT.NCT00789880.LB.LBDTC"}

    - name: CREAT
      formoid: ["FO.NCT00789880.LB"]
      itemoid: ["IT.NCT00789880.LB.CREAT"]
      LBTESTCD: {literal: "CREAT"}
      LBTEST: {literal: "Creatinine"}
      LBCAT: {literal: "CHEMISTRY"}
      LBSPEC: {literal: "SERUM"}
      LBLOC: {literal: ""}
      LBORRES: {source: "IT.NCT00789880.LB.CREAT"}
      LBORRESU: {literal: "mg/dL"}
      LBSTRESC: {source: "IT.NCT00789880.LB.CREAT"}
      LBSTRESN: {source: "IT.NCT00789880.LB.CREAT", type: "float"}
      LBSTRESU: {literal: "mg/dL"}
      LBDTC: {source: "IT.NCT00789880.LB.LBDTC"}

    - name: PTH
      formoid: ["FO.NCT00789880.LB"]
      itemoid: ["IT.NCT00789880.LB.PTH"]
      LBTESTCD: {literal: "PTH"}
      LBTEST: {literal: "Parathyroid Hormone"}
      LBCAT: {literal: "CHEMISTRY"}
      LBSPEC: {literal: "SERUM"}
      LBLOC: {literal: ""}
      LBORRES: {source: "IT.NCT00789880.LB.PTH"}
      LBORRESU: {literal: "pg/mL"}
      LBSTRESC: {source: "IT.NCT00789880.LB.PTH"}
      LBSTRESN: {source: "IT.NCT00789880.LB.PTH", type: "float"}
      LBSTRESU: {literal: "pg/mL"}
      LBDTC: {source: "IT.NCT00789880.LB.LBDTC"}

    - name: IGE
      formoid: ["FO.NCT00789880.LB"]
      itemoid: ["IT.NCT00789880.LB.IGE"]
      LBTESTCD: {literal: "IGE"}
      LBTEST: {literal: "Immunoglobulin E"}
      LBCAT: {literal: "IMMUNOLOGY"}
      LBSPEC: {literal: "SERUM"}
      LBLOC: {literal: ""}
      LBORRES: {source: "IT.NCT00789880.LB.IGE"}
      LBORRESU: {literal: "kU/L"}
      LBSTRESC: {source: "IT.NCT00789880.LB.IGE"}
      LBSTRESN: {source: "IT.NCT00789880.LB.IGE", type: "float"}
      LBSTRESU: {literal: "kU/L"}
      LBDTC: {source: "IT.NCT00789880.LB.LBDTC"}

    - name: RAST
      formoid: ["FO.NCT00789880.LB"]
      itemoid: ["IT.NCT00789880.LB.RAST"]
      LBTESTCD: {literal: "RAST"}
      LBTEST: {literal: "RAST Class"}
      LBCAT: {literal: "IMMUNOLOGY"}
      LBSPEC: {literal: "SERUM"}
      LBLOC: {literal: ""}
      LBORRES: {source: "IT.NCT00789880.LB.RAST"}
      LBORRESU: {literal: ""}
      LBSTRESC: {source: "IT.NCT00789880.LB.RAST"}
      LBSTRESN: {source: "IT.NCT00789880.LB.RAST", type: "float"}
      LBSTRESU: {literal: ""}
      LBDTC: {source: "IT.NCT00789880.LB.LBDTC"}

    # --- SKIN BIOPSY ---
    - name: CAMP_LES
      formoid: ["FO.NCT00789880.BX"]
      itemoid: ["IT.NCT00789880.BX.CAMP_LES"]
      LBTESTCD: {literal: "CAMP"}
      LBTEST: {literal: "Cathelicidin mRNA"}
      LBCAT: {literal: "GENE EXPRESSION"}
      LBSPEC: {literal: "SKIN BIOPSY"}
      LBLOC: {literal: "LESIONAL"}
      LBORRES: {source: "IT.NCT00789880.BX.CAMP_LES"}
      LBORRESU: {literal: ""}
      LBSTRESC: {source: "IT.NCT00789880.BX.CAMP_LES"}
      LBSTRESN: {source: "IT.NCT00789880.BX.CAMP_LES", type: "float"}
      LBSTRESU: {literal: ""}
      LBDTC: {source: "IT.NCT00789880.BX.BXDTC"}

    - name: CAMP_NONLES
      formoid: ["FO.NCT00789880.BX"]
      itemoid: ["IT.NCT00789880.BX.CAMP_NONLES"]
      LBTESTCD: {literal: "CAMP"}
      LBTEST: {literal: "Cathelicidin mRNA"}
      LBCAT: {literal: "GENE EXPRESSION"}
      LBSPEC: {literal: "SKIN BIOPSY"}
      LBLOC: {literal: "NON-LESIONAL"}
      LBORRES: {source: "IT.NCT00789880.BX.CAMP_NONLES"}
      LBORRESU: {literal: ""}
      LBSTRESC: {source: "IT.NCT00789880.BX.CAMP_NONLES"}
      LBSTRESN: {source: "IT.NCT00789880.BX.CAMP_NONLES", type: "float"}
      LBSTRESU: {literal: ""}
      LBDTC: {source: "IT.NCT00789880.BX.BXDTC"}
      
    - name: HBD3_LES
      formoid: ["FO.NCT00789880.BX"]
      itemoid: ["IT.NCT00789880.BX.HBD3_LES"]
      LBTESTCD: {literal: "HBD3"}
      LBTEST: {literal: "Beta-Defensin 3 mRNA"}
      LBCAT: {literal: "GENE EXPRESSION"}
      LBSPEC: {literal: "SKIN BIOPSY"}
      LBLOC: {literal: "LESIONAL"}
      LBORRES: {source: "IT.NCT00789880.BX.HBD3_LES"}
      LBORRESU: {literal: ""}
      LBSTRESC: {source: "IT.NCT00789880.BX.HBD3_LES"}
      LBSTRESN: {source: "IT.NCT00789880.BX.HBD3_LES", type: "float"}
      LBSTRESU: {literal: ""}
      LBDTC: {source: "IT.NCT00789880.BX.BXDTC"}

    - name: HBD3_NONLES
      formoid: ["FO.NCT00789880.BX"]
      itemoid: ["IT.NCT00789880.BX.HBD3_NONLES"]
      LBTESTCD: {literal: "HBD3"}
      LBTEST: {literal: "Beta-Defensin 3 mRNA"}
      LBCAT: {literal: "GENE EXPRESSION"}
      LBSPEC: {literal: "SKIN BIOPSY"}
      LBLOC: {literal: "NON-LESIONAL"}
      LBORRES: {source: "IT.NCT00789880.BX.HBD3_NONLES"}
      LBORRESU: {literal: ""}
      LBSTRESC: {source: "IT.NCT00789880.BX.HBD3_NONLES"}
      LBSTRESN: {source: "IT.NCT00789880.BX.HBD3_NONLES", type: "float"}
      LBSTRESU: {literal: ""}
      LBDTC: {source: "IT.NCT00789880.BX.BXDTC"}
      
    - name: IL13_LES
      formoid: ["FO.NCT00789880.BX"]
      itemoid: ["IT.NCT00789880.BX.IL13_LES"]
      LBTESTCD: {literal: "IL13"}
      LBTEST: {literal: "Interleukin 13 mRNA"}
      LBCAT: {literal: "GENE EXPRESSION"}
      LBSPEC: {literal: "SKIN BIOPSY"}
      LBLOC: {literal: "LESIONAL"}
      LBORRES: {source: "IT.NCT00789880.BX.IL13_LES"}
      LBORRESU: {literal: ""}
      LBSTRESC: {source: "IT.NCT00789880.BX.IL13_LES"}
      LBSTRESN: {source: "IT.NCT00789880.BX.IL13_LES", type: "float"}
      LBSTRESU: {literal: ""}
      LBDTC: {source: "IT.NCT00789880.BX.BXDTC"}

    - name: IL13_NONLES
      formoid: ["FO.NCT00789880.BX"]
      itemoid: ["IT.NCT00789880.BX.IL13_NONLES"]
      LBTESTCD: {literal: "IL13"}
      LBTEST: {literal: "Interleukin 13 mRNA"}
      LBCAT: {literal: "GENE EXPRESSION"}
      LBSPEC: {literal: "SKIN BIOPSY"}
      LBLOC: {literal: "NON-LESIONAL"}
      LBORRES: {source: "IT.NCT00789880.BX.IL13_NONLES"}
      LBORRESU: {literal: ""}
      LBSTRESC: {source: "IT.NCT00789880.BX.IL13_NONLES"}
      LBSTRESN: {source: "IT.NCT00789880.BX.IL13_NONLES", type: "float"}
      LBSTRESU: {literal: ""}
      LBDTC: {source: "IT.NCT00789880.BX.BXDTC"}

    - name: IL4_LES
      formoid: ["FO.NCT00789880.BX"]
      itemoid: ["IT.NCT00789880.BX.IL4_LES"]
      LBTESTCD: {literal: "IL4"}
      LBTEST: {literal: "Interleukin 4 mRNA"}
      LBCAT: {literal: "GENE EXPRESSION"}
      LBSPEC: {literal: "SKIN BIOPSY"}
      LBLOC: {literal: "LESIONAL"}
      LBORRES: {source: "IT.NCT00789880.BX.IL4_LES"}
      LBORRESU: {literal: ""}
      LBSTRESC: {source: "IT.NCT00789880.BX.IL4_LES"}
      LBSTRESN: {source: "IT.NCT00789880.BX.IL4_LES", type: "float"}
      LBSTRESU: {literal: ""}
      LBDTC: {source: "IT.NCT00789880.BX.BXDTC"}

    - name: IL4_NONLES
      formoid: ["FO.NCT00789880.BX"]
      itemoid: ["IT.NCT00789880.BX.IL4_NONLES"]
      LBTESTCD: {literal: "IL4"}
      LBTEST: {literal: "Interleukin 4 mRNA"}
      LBCAT: {literal: "GENE EXPRESSION"}
      LBSPEC: {literal: "SKIN BIOPSY"}
      LBLOC: {literal: "NON-LESIONAL"}
      LBORRES: {source: "IT.NCT00789880.BX.IL4_NONLES"}
      LBORRESU: {literal: ""}
      LBSTRESC: {source: "IT.NCT00789880.BX.IL4_NONLES"}
      LBSTRESN: {source: "IT.NCT00789880.BX.IL4_NONLES", type: "float"}
      LBSTRESU: {literal: ""}
      LBDTC: {source: "IT.NCT00789880.BX.BXDTC"}

    # --- SALIVA ---
    - name: SAL_CAMP
      formoid: ["FO.NCT00789880.SAL"]
      itemoid: ["IT.NCT00789880.SAL.SAL_CAMP"]
      LBTESTCD: {literal: "CAMPPRO"}
      LBTEST: {literal: "Cathelicidin Protein"}
      LBCAT: {literal: "ANTIMICROBIAL PEPTIDE"}
      LBSPEC: {literal: "SALIVA"}
      LBLOC: {literal: ""}
      LBORRES: {source: "IT.NCT00789880.SAL.SAL_CAMP"}
      LBORRESU: {literal: "ng/mL"}
      LBSTRESC: {source: "IT.NCT00789880.SAL.SAL_CAMP"}
      LBSTRESN: {source: "IT.NCT00789880.SAL.SAL_CAMP", type: "float"}
      LBSTRESU: {literal: "ng/mL"}
      LBDTC: {source: "IT.NCT00789880.SAL.SALDTC"}

    # --- TAPE STRIP ---
    - name: TS_CAMP_LES
      formoid: ["FO.NCT00789880.TS"]
      itemoid: ["IT.NCT00789880.TS.TS_CAMP_LES"]
      LBTESTCD: {literal: "CAMPPRO"}
      LBTEST: {literal: "Cathelicidin Protein"}
      LBCAT: {literal: "ANTIMICROBIAL PEPTIDE"}
      LBSPEC: {literal: "TAPE STRIP"}
      LBLOC: {literal: "LESIONAL"}
      LBORRES: {source: "IT.NCT00789880.TS.TS_CAMP_LES"}
      LBORRESU: {literal: "ng/mL"}
      LBSTRESC: {source: "IT.NCT00789880.TS.TS_CAMP_LES"}
      LBSTRESN: {source: "IT.NCT00789880.TS.TS_CAMP_LES", type: "float"}
      LBSTRESU: {literal: "ng/mL"}
      LBDTC: {source: "IT.NCT00789880.TS.TSDTC"}

    - name: TS_CAMP_NONLES
      formoid: ["FO.NCT00789880.TS"]
      itemoid: ["IT.NCT00789880.TS.TS_CAMP_NONLES"]
      LBTESTCD: {literal: "CAMPPRO"}
      LBTEST: {literal: "Cathelicidin Protein"}
      LBCAT: {literal: "ANTIMICROBIAL PEPTIDE"}
      LBSPEC: {literal: "TAPE STRIP"}
      LBLOC: {literal: "NON-LESIONAL"}
      LBORRES: {source: "IT.NCT00789880.TS.TS_CAMP_NONLES"}
      LBORRESU: {literal: "ng/mL"}
      LBSTRESC: {source: "IT.NCT00789880.TS.TS_CAMP_NONLES"}
      LBSTRESN: {source: "IT.NCT00789880.TS.TS_CAMP_NONLES", type: "float"}
      LBSTRESU: {literal: "ng/mL"}
      LBDTC: {source: "IT.NCT00789880.TS.TSDTC"}
      
    - name: TS_HBD3_LES
      formoid: ["FO.NCT00789880.TS"]
      itemoid: ["IT.NCT00789880.TS.TS_HBD3_LES"]
      LBTESTCD: {literal: "HBD3PRO"}
      LBTEST: {literal: "Beta-Defensin 3 Protein"}
      LBCAT: {literal: "ANTIMICROBIAL PEPTIDE"}
      LBSPEC: {literal: "TAPE STRIP"}
      LBLOC: {literal: "LESIONAL"}
      LBORRES: {source: "IT.NCT00789880.TS.TS_HBD3_LES"}
      LBORRESU: {literal: "ng/mL"}
      LBSTRESC: {source: "IT.NCT00789880.TS.TS_HBD3_LES"}
      LBSTRESN: {source: "IT.NCT00789880.TS.TS_HBD3_LES", type: "float"}
      LBSTRESU: {literal: "ng/mL"}
      LBDTC: {source: "IT.NCT00789880.TS.TSDTC"}

    - name: TS_HBD3_NONLES
      formoid: ["FO.NCT00789880.TS"]
      itemoid: ["IT.NCT00789880.TS.TS_HBD3_NONLES"]
      LBTESTCD: {literal: "HBD3PRO"}
      LBTEST: {literal: "Beta-Defensin 3 Protein"}
      LBCAT: {literal: "ANTIMICROBIAL PEPTIDE"}
      LBSPEC: {literal: "TAPE STRIP"}
      LBLOC: {literal: "NON-LESIONAL"}
      LBORRES: {source: "IT.NCT00789880.TS.TS_HBD3_NONLES"}
      LBORRESU: {literal: "ng/mL"}
      LBSTRESC: {source: "IT.NCT00789880.TS.TS_HBD3_NONLES"}
      LBSTRESN: {source: "IT.NCT00789880.TS.TS_HBD3_NONLES", type: "float"}
      LBSTRESU: {literal: "ng/mL"}
      LBDTC: {source: "IT.NCT00789880.TS.TSDTC"}
