STUDYID,DOMAIN,USUBJID,EXSEQ,EXTRT,EXDOSE,EXDOSU,EXSTDTC,EXENDTC,EXADJ
PILOT7,EX,P7-001,2,Pembrolizumab,200,mg,2025-01-02,2025-01-02,
PILOT7,EX,P7-001,3,Pemetrexed,500,mg/m2,2025-01-02,2025-01-02,
PILOT7,EX,P7-001,1,Carboplatin,5,AUC,2025-01-02,2025-01-02,
PILOT7,EX,P7-001,5,Pembrolizumab,200,mg,2025-01-23,2025-01-23,DOSE INTERRUPTED
PILOT7,EX,P7-001,6,Pemetrexed,500,mg/m2,2025-01-23,2025-01-23,
PILOT7,EX,P7-001,4,Carboplatin,5,AUC,2025-01-23,2025-01-23,
PILOT7,EX,P7-002,3,Saline placebo,0,mg,2025-01-02,2025-01-02,
PILOT7,EX,P7-002,2,Pemetrexed,500,mg/m2,2025-01-02,2025-01-02,
PILOT7,EX,P7-002,1,Cisplatin,75,mg/m2,2025-01-02,2025-01-02,
