STUDYID,USUBJID,PARAMCD,PARAM,STARTDT,ADT,AVAL,CNSR,EVNTDESC,CNSDTDSC,SRCDOM,SRCVAR,SRCSEQ
EVAL-02,EVAL-02-201,DOR,Duration of Response,2026-01-01,2026-01-10,10,0,DISEASE PROGRESSION,,ADRS,ADT,2
EVAL-02,EVAL-02-202,DOR,Duration of Response,2026-01-03,2026-01-08,6,1,CENSORED,START OF NEW ANTI-CANCER THERAPY,ADSL,NACTDT,
EVAL-02,EVAL-02-203,DOR,Duration of Response,2026-01-02,2026-01-07,6,1,CENSORED,LAST TUMOUR ASSESSMENT,ADRS,ADT,3
