STUDYID,USUBJID,AESEQ,AEDECOD,AESEV,AESTDTC
YAMAA-01,001,1,HEADACHE,MILD,2024-01-02
YAMAA-01,001,2,NAUSEA,SEVERE,2024-01-05
YAMAA-01,001,3,FATIGUE,MODERATE,2024-01-03
YAMAA-01,002,1,HEADACHE,SEVERE,2024-02-01
YAMAA-01,002,2,NAUSEA,SEVERE,2024-02-01
YAMAA-01,002,3,FATIGUE,MILD,2024-02-02
YAMAA-01,003,1,HEADACHE,MODERATE,2024-03-01
YAMAA-01,003,2,NAUSEA,MODERATE,2024-03-05
YAMAA-01,003,3,DIZZINESS,SEVERE,2024-03-01
