STUDYID,USUBJID,VSSEQ,VSTESTCD,VSCAT,VSSTRESN,VSSTRESU,VSDTC
PROJ1,SUBJ1,1,TEMP,REACTOGENICITY,38.5,C,2024-01-15T08:30
PROJ1,SUBJ1,2,TEMP,REACTOGENICITY,37.5,C,2024-01-16T08:30
PROJ1,SUBJ1,3,TEMP,REACTOGENICITY,,C,2024-01-17T08:30
PROJ1,SUBJ1,4,SYSBP,REACTOGENICITY,120,mmHg,2024-01-15T08:30
PROJ1,SUBJ2,1,TEMP,REACTOGENICITY,101.3,F,2024-01-15T09:00
PROJ1,SUBJ2,2,TEMP,OTHER,38.1,C,2024-01-16T09:00
PROJ1,SUBJ2,3,TEMP,REACTOGENICITY,39.2,C,2024-01-17T09:00
