STUDYID,USUBJID,VISITN,VISIT,VSDTC,TRTSDT,VSSTRESN,VSEVAL
YAMAA-01,01,1,VISIT 1,2025-01-02,2025-01-12,120,Y
YAMAA-01,01,2,VISIT 2,2025-01-09,2025-01-12,118,Y
YAMAA-01,01,3,VISIT 3,2025-01-16,2025-01-12,,N
YAMAA-01,01,4,VISIT 4,2025-01-23,2025-01-12,122,Y
YAMAA-01,01,5,VISIT 5,2025-01-30,2025-01-12,122,Y
YAMAA-01,02,1,VISIT 1,2025-02-01,2025-02-10,98,Y
YAMAA-01,02,2,VISIT 2,2025-02-08,2025-02-10,,Y
YAMAA-01,02,3,VISIT 3,2025-02-15,2025-02-10,,Y
YAMAA-01,02,4,VISIT 4,2025-02-22,2025-02-10,105,Y
YAMAA-01,03,1,VISIT 1,2025-03-01,2025-03-20,130,Y
YAMAA-01,03,2,VISIT 2,2025-03-08,2025-03-20,130,Y
YAMAA-01,03,3,VISIT 3,2025-03-15,2025-03-20,128,N
YAMAA-01,04,1,VISIT 1,2025-04-01,2025-03-15,115,Y
