DOMAIN,STUDYID,USUBJID,AESEQ,AETERM,AESTDTC,AEENDTC,AESTDY,AEENDY
AE,YAMAA-01,YAMAA-01-001,1,Headache,2026-03-15,2026-03-20,65,70
AE,YAMAA-01,YAMAA-01-001,2,Nausea,2026-03,2026-04-02,,83
AE,YAMAA-01,YAMAA-01-001,3,Fatigue,2026,,,
AE,YAMAA-01,YAMAA-01-002,1,Dizziness,2026-01-28,2026-02,-4,
AE,YAMAA-01,YAMAA-01-002,2,Rash,,2026-02-10,,10
AE,YAMAA-01,YAMAA-01-003,1,Headache,2026-05-01,2026-05-05,,
