STUDYID,USUBJID,RSSEQ,RSTESTCD,RSEVAL,RSDTC,RSSTRESC
PILOT7,P7-911,1,OVRLRESP,INVESTIGATOR,2025-02-03,PR
PILOT7,P7-911,2,OVRLRESP,INVESTIGATOR,2025-03-17,CR
PILOT7,P7-911,3,OVRLRESP,INVESTIGATOR,2025-04-28,PD
PILOT7,P7-912,1,OVRLRESP,INVESTIGATOR,2025-02-10,SD
PILOT7,P7-912,2,OVRLRESP,INVESTIGATOR,2025-02-10,PD
PILOT7,P7-912,3,OVRLRESP,INVESTIGATOR,2025-03-24,NE
PILOT7,P7-913,1,OVRLRESP,INVESTIGATOR,2025-03,NON-CR/NON-PD
PILOT7,P7-914,1,OVRLRESP,INVESTIGATOR,2025-02-17,SD
PILOT7,P7-914,2,OVRLRESP,INVESTIGATOR,2025-02-17,SD
PILOT7,P7-915,1,TRGRESP,INVESTIGATOR,2025-05-05,PR
PILOT7,P7-915,2,OVRLRESP,INDEPENDENT ASSESSOR,2025-05-05,PR
PILOT7,P7-915,3,OVRLRESP,INVESTIGATOR,2025-05-05,CR
