STUDYID,USUBJID,AESEQ,AESER,ASTDT,SERSEQ
PILOT7,P7-995,1,N,2023-02-11,
PILOT7,P7-995,2,Y,2023-03-04,3
PILOT7,P7-995,3,Y,2023-02-20,1
PILOT7,P7-995,4,Y,2023-02-20,2
PILOT7,P7-995,5,Y,,4
PILOT7,P7-996,1,N,2023-01-15,
PILOT7,P7-996,2,N,2023-02-02,
PILOT7,P7-996,3,N,,
PILOT7,P7-997,1,Y,2023-05-10,1
PILOT7,P7-997,2,N,2023-05-12,
