STUDYID,USUBJID,LBSEQ,LBTESTCD,VISITNUM,AVAL,ENDPOINT,EOTFL
YAMAA-01,YAMAA-01-101,1,ALB,1,4,,
YAMAA-01,YAMAA-01-101,2,ALB,2,4.2,Y,Y
YAMAA-01,YAMAA-01-101,3,ALB,3,4.1,,
YAMAA-01,YAMAA-01-101,4,CREAT,1,80,,
YAMAA-01,YAMAA-01-101,5,CREAT,2,82,,
YAMAA-01,YAMAA-01-101,6,CREAT,3,85,,Y
YAMAA-01,YAMAA-01-102,1,ALB,1,3.9,,
YAMAA-01,YAMAA-01-102,2,ALB,2,4,,Y
YAMAA-01,YAMAA-01-103,1,ALB,1,4.3,,Y
YAMAA-01,YAMAA-01-104,1,ALB,1,,Y,Y
YAMAA-01,YAMAA-01-104,2,ALB,2,4.4,,
YAMAA-01,YAMAA-01-105,1,CREAT,3,95,Y,Y
