DOMAIN,STUDYID,USUBJID,CMSEQ,CMTRT,CMDOSE,CMDOSU,CMSTDTC,CMENDTC
CM,YAMAA-01,YAMAA-01-001,1,ASPIRIN,100,mg,2024-03-05,2024-03-12
CM,YAMAA-01,YAMAA-01-002,1,LISINOPRIL,10,mg,2023-09,
CM,YAMAA-01,YAMAA-01-002,2,IBUPROFEN,200-400,mg,2024-04-02,2024-04-09
