STUDYID,USUBJID,DSSEQ,DSDTC,DSDECOD
YAMAA-01,YAMAA-01-101,1,2026-03-21,DEATH
YAMAA-01,YAMAA-01-102,1,2026-01-30,DEATH
YAMAA-01,YAMAA-01-106,1,2026-03-15,DEATH
YAMAA-01,YAMAA-01-108,1,2026-05-01,DEATH
YAMAA-01,YAMAA-01-108,2,2026-05-01,DEATH
YAMAA-01,YAMAA-01-112,1,2026-03-15,DEATH
