STUDYID,USUBJID,RSSEQ,RSTESTCD,RSDTC,RSSTRESC,ADEQFL
YAMAA-01,YAMAA-01-101,1,OVRLRESP,2026-01-01,SD,Y
YAMAA-01,YAMAA-01-101,2,OVRLRESP,2026-02-19,PD,Y
YAMAA-01,YAMAA-01-102,1,OVRLRESP,2026-01-01,SD,Y
YAMAA-01,YAMAA-01-102,2,OVRLRESP,2026-01-22,SD,Y
YAMAA-01,YAMAA-01-103,1,OVRLRESP,2026-02-01,SD,Y
YAMAA-01,YAMAA-01-103,2,OVRLRESP,2026-03-14,SD,Y
YAMAA-01,YAMAA-01-104,1,OVRLRESP,2026-01-15,SD,Y
YAMAA-01,YAMAA-01-104,2,OVRLRESP,2026-02-05,SD,Y
YAMAA-01,YAMAA-01-104,3,OVRLRESP,2026-03-06,PD,N
YAMAA-01,YAMAA-01-105,1,OVRLRESP,2026-03-01,SD,Y
YAMAA-01,YAMAA-01-105,2,OVRLRESP,,SD,Y
YAMAA-01,YAMAA-01-106,1,OVRLRESP,2026-01-01,SD,Y
YAMAA-01,YAMAA-01-106,2,OVRLRESP,2026-03-15,PD,Y
YAMAA-01,YAMAA-01-107,1,OVRLRESP,2026-01-01,SD,Y
YAMAA-01,YAMAA-01-107,2,OVRLRESP,2026-04-01,PD,Y
YAMAA-01,YAMAA-01-107,3,OVRLRESP,2026-04-01,PD,Y
YAMAA-01,YAMAA-01-108,1,OVRLRESP,2026-02-01,SD,Y
YAMAA-01,YAMAA-01-108,2,OVRLRESP,2026-03-01,SD,Y
YAMAA-01,YAMAA-01-109,1,OVRLRESP,2026-04-15,SD,Y
YAMAA-01,YAMAA-01-110,1,OVRLRESP,2026-01-15,SD,Y
YAMAA-01,YAMAA-01-110,2,OVRLRESP,2026-03-01,SD,Y
YAMAA-01,YAMAA-01-110,3,OVRLRESP,2026-04-01,PD,Y
YAMAA-01,YAMAA-01-111,1,OVRLRESP,,SD,Y
YAMAA-01,YAMAA-01-111,2,OVRLRESP,2026-06-01,PD,N
YAMAA-01,YAMAA-01-112,1,OVRLRESP,2026-01-10,SD,Y
