STUDYID,USUBJID,AESEQ,AETERM,AESTDTC
CATH,CATH-UCSD-0001,1,HEADACHE,2025-01-15
CATH,CATH-UCSD-0001,2,NAUSEA,2025-01
CATH,CATH-UCSD-0001,3,ECZEMA FLARE,2025
CATH,CATH-UCSD-0001,4,DIZZINESS,UNKNOWN
CATH,CATH-UCSD-0001,5,FATIGUE,
CATH,CATH-UCSD-0001,6,RASH,2025-02-20
