STUDYID,USUBJID,RDOMAIN,IDVAR,IDVARVAL,RELTYPE,RELID
YAMAA-01,,TU,TULNKID,,ONE,1
YAMAA-01,,TR,TRLNKID,,MANY,1
YAMAA-01,YAMAA-01-001,AE,AESEQ,1,,REL-1
YAMAA-01,YAMAA-01-001,AE,AESEQ,2,,REL-2
YAMAA-01,YAMAA-01-001,CM,CMSEQ,1,,REL-1
YAMAA-01,YAMAA-01-001,CM,CMSEQ,2,,REL-2
