STUDYID,USUBJID,PARAMCD,AVALC,ANL01FL,ADT,ASEQ
YAMAA-01,YAMAA-01-101,DEATH,Y,Y,2026-06-01,1
YAMAA-01,YAMAA-01-102,DEATH,N,Y,2026-06-01,1
YAMAA-01,YAMAA-01-106,DEATH,Y,Y,2026-04-01,2
YAMAA-01,YAMAA-01-107,DEATH,Y,Y,2026-02-01,1
YAMAA-01,YAMAA-01-108,DEATH,Y,Y,2026-07-01,3
YAMAA-01,YAMAA-01-108,DEATH,Y,Y,2026-07-01,2
YAMAA-01,YAMAA-01-109,BOR,Y,Y,2026-02-01,3
YAMAA-01,YAMAA-01-109,DEATH,Y,N,2026-03-01,1
YAMAA-01,YAMAA-01-109,DEATH,Y,Y,2026-05-01,2
YAMAA-01,YAMAA-01-110,DEATH,Y,Y,,1
