schema_version: "1.0"
domain: ADAE
keys: [STUDYID, USUBJID, AESEQ]
input:
  ADAE_RAW: {path: input/adae_raw.csv, types: {ASTDT: date}}

output:
  path: adae.csv
  columns: [STUDYID, USUBJID, AESEQ, AEBODSYS, AEDECOD, ASTDT, TRTEMFL, AOCCFL,
            AOCCSFL, AOCCPFL]

columns:
  - name: STUDYID
    type: str
    label: Study Identifier
    derivation: ADAE_RAW.STUDYID

  - name: USUBJID
    type: str
    label: Unique Subject Identifier
    derivation: ADAE_RAW.USUBJID

  - name: AESEQ
    type: int
    label: Sequence Number
    derivation: ADAE_RAW.AESEQ

  - name: AEBODSYS
    type: str
    label: Body System or Organ Class
    derivation: ADAE_RAW.AEBODSYS

  - name: AEDECOD
    type: str
    label: Dictionary-Derived Term
    derivation: ADAE_RAW.AEDECOD

  - name: ASTDT
    type: date
    label: Analysis Start Date
    derivation: ADAE_RAW.ASTDT

  - name: TRTEMFL
    type: str
    label: Treatment Emergent Analysis Flag
    derivation: ADAE_RAW.TRTEMFL
    verifications:
      allowed_values:
        values: [Y]

  # Number each subject's treatment-emergent events (earliest first, AESEQ
  # breaking same-day ties) at three levels; each flag below marks number 1.
  - name: AOCCSEQ
    type: int
    label: Subject Occurrence Sequence Number
    derivation:
      row_number:
        window:
          group_by: [STUDYID, USUBJID]
          order_by: [ASTDT, AESEQ]
          filter: "TRTEMFL = 'Y'"

  - name: AOCCSSEQ
    type: int
    label: Body System Occurrence Sequence Number
    derivation:
      row_number:
        window:
          group_by: [STUDYID, USUBJID, AEBODSYS]
          order_by: [ASTDT, AESEQ]
          filter: "TRTEMFL = 'Y'"

  - name: AOCCPSEQ
    type: int
    label: Preferred Term Occurrence Sequence Number
    derivation:
      row_number:
        window:
          group_by: [STUDYID, USUBJID, AEBODSYS, AEDECOD]
          order_by: [ASTDT, AESEQ]
          filter: "TRTEMFL = 'Y'"

  - name: AOCCFL
    type: str
    label: 1st Occurrence within Subject Flag
    derivation:
      flag: "AOCCSEQ = 1"

  - name: AOCCSFL
    type: str
    label: 1st Occurrence of SOC Flag
    derivation:
      flag: "AOCCSSEQ = 1"

  - name: AOCCPFL
    type: str
    label: 1st Occurrence of Preferred Term Flag
    derivation:
      flag: "AOCCPSEQ = 1"

verifications:
  - unique:
      columns: [STUDYID, USUBJID, AESEQ]
  - row_count:
      min: 10
      max: 10
  - implies:
      id: occurrence-flag-requires-treatment-emergence
      when: "AOCCFL = 'Y' OR AOCCSFL = 'Y' OR AOCCPFL = 'Y'"
      then: "TRTEMFL = 'Y'"
