schema_version: "1.0"
domain: ADAE
keys: [STUDYID, USUBJID, AESEQ]
input:
  AE: input/ae.csv
  ADSL: {path: input/adsl.csv, types: {TRTSDT: date}}
base: AE

output:
  path: adae.csv
  columns: [STUDYID, USUBJID, AESEQ, AETERM, AESTDTC, ASTDT, ASTDTC, ASTDTF,
            TRTSDT, TRTEMFL]

columns:
  - name: STUDYID
    type: str
    label: Study Identifier
    derivation: AE.STUDYID

  - name: USUBJID
    type: str
    label: Unique Subject Identifier
    derivation: AE.USUBJID

  - name: AESEQ
    type: int
    label: Sequence Number
    derivation: AE.AESEQ

  - name: AETERM
    type: str
    label: Reported Term for the Adverse Event
    derivation: AE.AETERM

  - name: AESTDTC
    type: str
    label: Start Date/Time of Adverse Event
    derivation: AE.AESTDTC

  - name: TRTSDT
    type: date
    label: Date of First Exposure to Treatment
    derivation: ADSL.TRTSDT

  # Complete a year-and-month start to the 15th, never before first
  # exposure. A year alone, non-date text, or nothing gives no date.
  # (Month precision is the minimum accepted, so no month is ever
  # supplied, and none is written.)
  - name: ASTDT
    type: date
    label: Analysis Start Date
    derivation:
      date_impute:
        source: AESTDTC
        day: 15
        minimum_source_precision: month
        not_before: TRTSDT
        missing: null   # handlers are explicit: an omitted one is fatal
        invalid: null

  - name: ASTDTC
    type: str
    label: Analysis Start Date (C)
    derivation: ASTDT

  - name: ASTDTPR
    type: str
    label: Analysis Start Date Precision
    derivation:
      date_precision:
        source: ASTDT
        missing: null

  # M means the collected start carried a year and month, so the day was
  # supplied.
  - name: ASTDTF
    type: str
    label: Analysis Start Date Imputation Flag
    derivation:
      case:
        - when: "ASTDTPR = 'M'"
          then: {literal: "D"}
    verifications:
      allowed_values:
        values: ["D"]

  - name: TRTEMFL
    type: str
    label: Treatment Emergent Analysis Flag
    derivation:
      flag: "ASTDT >= TRTSDT"
    verifications:
      allowed_values:
        values: [Y]

verifications:
  - unique:
      columns: [STUDYID, USUBJID, AESEQ]
  - row_count:
      min: 13
      max: 13
  - all_or_none:
      id: analysis-date-completeness
      columns: [ASTDTC, ASTDT]
  - implies:
      id: imputation-flag-requires-an-analysis-date
      when: "ASTDTF IS NOT NULL"
      then: "ASTDT IS NOT NULL"
  - implies:
      id: supplied-day-never-precedes-treatment-start
      when: "ASTDTF = 'D'"
      then: "TRTSDT IS NULL OR ASTDT >= TRTSDT"
  - implies:
      id: treatment-emergent-event-has-an-analysis-date
      when: "TRTEMFL = 'Y'"
      then: "ASTDT IS NOT NULL AND ASTDT >= TRTSDT"
