STUDYID,USUBJID,CESEQ,CETERM,ASTDT,ASEV,ASEVN,ATOXGRN,AOCCFL
KN189,KN189-101,1,FEVER,2024-01-11,MILD,1,1,
KN189,KN189-101,2,FATIGUE,2024-01-11,MODERATE,2,2,
KN189,KN189-101,3,CHILLS,2024-01-13,SEVERE,3,3,Y
KN189,KN189-101,4,FATIGUE,2024-01-12,MILD,1,1,
KN189,KN189-102,1,FEVER,2024-02-06,MILD,1,1,
KN189,KN189-102,2,FEVER,2024-02-06,MODERATE,2,2,Y
KN189,KN189-103,1,REDNESS,2024-03-02,MODERATE,2,2,Y
