STUDYID,USUBJID,TRT01RAW,TRT01SRC,TRT01A,TRTSDT,TRTEDT,TRTDUR0,TRTDURD,SAFFL
CATH,CATH-UCSD-0001,VITAMIN D3,VITAMIN D3,VITAMIN D3,2025-01-08,2025-01-28,20,21,Y
CATH,CATH-UCSD-0002,PLACEBO,PLACEBO,PLACEBO,2025-02-08,2025-02-28,20,21,Y
CATH,SUBJECT-0003,,Vitamin D3,VITAMIN D3,,,,,N
CATH,CATH-UCSD-0004,,NOT TREATED,NOT TREATED,,,,,N
