DOMAIN,STUDYID,USUBJID,LBSEQ,LBTESTCD,SEX,LBNAM,LBSTRESN,LBORRESU,LBSTNRLO,LBSTNRHI,LBNRIND
LB,PILOT7,P7-501,1,ALT,M,Central Lab,15,U/L,0,40,NORMAL
LB,PILOT7,P7-502,1,ALT,F,Central Lab,39,U/L,0,38,HIGH
LB,PILOT7,P7-503,1,HGB,F,Local Lab A,12.5,g/dL,11.5,15.5,NORMAL
LB,PILOT7,P7-504,1,HGB,M,Local Lab A,12.5,g/dL,13.5,17.5,LOW
LB,PILOT7,P7-505,1,CREAT,M,Central Lab,0.9,mg/dL,0.7,1.3,NORMAL
LB,PILOT7,P7-506,1,ALT,M,Central Lab,,U/L,0,45,
LB,PILOT7,P7-507,1,POTASSIUM,F,Local Lab A,5.5,mmol/L,3.5,5.1,HIGH
