schema_version: "1.0"
domain: ADLBC
keys: [STUDYID, USUBJID, AVISIT, LBSEQ]

input:
  LB: ../pilot3-data-str/sdtm/lb.parquet
  SUPPLB: ../pilot3-data-str/sdtm/supplb.parquet
  ADSL: ../pilot3-data-str/adam/adsl.parquet
base: LB

intermediates:
  - id: ADSL1
    dataset: ADSL
    key: [STUDYID, USUBJID]
    columns: [SUBJID, TRT01P, TRT01PN, TRT01A, TRT01AN, TRTSDT, TRTEDT, AGE, AGEGR1, AGEGR1N, RACE, RACEN, SEX, COMP24FL, DSRAEFL, SAFFL]
  - id: SUP_EP
    dataset: SUPPLB
    key: [STUDYID, USUBJID, IDVARVAL]
    key_base: [LB.STUDYID, LB.USUBJID, LBSEQ_K]
    filter: "SUPPLB.QNAM = 'ENDPOINT'"
  - id: BL
    dataset: LB
    key: [STUDYID, USUBJID, LBTESTCD]
    key_base: [STUDYID, USUBJID, PARAMCD]
    filter: "LB.LBBLFL = 'Y'"

columns:
  # Subject-level (from ADSL)
  - name: STUDYID
    type: str
    derivation: LB.STUDYID
  - name: SUBJID
    type: str
    derivation: ADSL1.SUBJID
  - name: USUBJID
    type: str
    derivation: LB.USUBJID
  - name: TRTP
    type: str
    derivation: ADSL1.TRT01P
  - name: TRTPN
    type: float
    derivation: ADSL1.TRT01PN
  - name: TRTA
    type: str
    derivation: ADSL1.TRT01A
  - name: TRTAN
    type: float
    derivation: ADSL1.TRT01AN
  - name: TRTSDT
    type: date
    derivation: ADSL1.TRTSDT
  - name: TRTEDT
    type: date
    derivation: ADSL1.TRTEDT
  - name: AGE
    type: float
    derivation: ADSL1.AGE
  - name: AGEGR1
    type: str
    derivation: ADSL1.AGEGR1
  - name: AGEGR1N
    type: float
    derivation: ADSL1.AGEGR1N
  - name: RACE
    type: str
    derivation: ADSL1.RACE
  - name: RACEN
    type: float
    derivation: ADSL1.RACEN
  - name: SEX
    type: str
    derivation: ADSL1.SEX
  - name: COMP24FL
    type: str
    derivation: ADSL1.COMP24FL
  - name: DSRAEFL
    type: str
    derivation:
      first_available:
        sources: [ADSL1.DSRAEFL]
        missing: ""
  - name: SAFFL
    type: str
    derivation: ADSL1.SAFFL
  # Visit (row-template derived)
  - name: AVISIT
    type: str
  - name: AVISITN
    type: float
  # Dates
  - name: ADT
    type: date
    derivation:
      str_extract:
        source: LB.LBDTC
        pattern: "^[0-9]{4}-[0-9]{2}-[0-9]{2}"
  - name: ADY
    type: float
    derivation:
      study_day:
        date: ADT
        reference: TRTSDT
  # Visit echoes
  - name: VISIT
    type: str
    derivation: LB.VISIT
  - name: VISITNUM
    type: float
    derivation: LB.VISITNUM
  # Parameters
  - name: PARAM
    type: str
    derivation:
      str_template:
        template: "{LB.LBTEST} ({LB.LBSTRESU})"
  - name: PARAMCD
    type: str
    derivation: LB.LBTESTCD
  - name: PARAMN
    type: float
    derivation:
      mapping:
        source: PARAMCD
        dict: {SODIUM: 18, K: 19, CL: 20, BILI: 21, ALP: 22, GGT: 23, ALT: 24, AST: 25, BUN: 26, CREAT: 27, URATE: 28, PHOS: 29, CA: 30, GLUC: 31, PROT: 32, ALB: 33, CHOL: 34, CK: 35}
        missing: null
  - name: PARCAT1
    type: str
    derivation: {literal: "CHEM"}
  # Values
  - name: AVAL
    type: float
    derivation: LB.LBSTRESN
  - name: ABLFL
    type: str
    derivation:
      first_available:
        sources: [LB.LBBLFL]
        missing: ""
  - name: BASE
    type: float
    derivation: BL.LBSTRESN
  - name: CHG
    type: float
    derivation:
      case:
        - when: "VISITNUM <> 1"
          then:
            compute:
              expr: "AVAL - BASE"
  # Limits
  - name: A1LO
    type: float
    derivation: LB.LBSTNRLO
  - name: A1HI
    type: float
    derivation: LB.LBSTNRHI
  - name: R2A1LO
    type: float
    derivation:
      compute:
        expr: "AVAL / A1LO"
  - name: R2A1HI
    type: float
    derivation:
      compute:
        expr: "AVAL / A1HI"
  - name: B_LO
    type: float
    derivation: BL.LBSTNRLO
  - name: B_HI
    type: float
    derivation: BL.LBSTNRHI
  - name: BR2A1LO
    type: float
    derivation:
      compute:
        expr: "BASE / A1LO"
  - name: BR2A1HI
    type: float
    derivation:
      compute:
        expr: "BASE / A1HI"
  # Helpers for ALBTRVAL/ANRIND/BNRIND
  - name: T_LO
    type: float
    derivation:
      compute:
        expr: "ABS(AVAL - 1.5 * A1HI)"
  - name: T_HI
    type: float
    derivation:
      compute:
        expr: "ABS(0.5 * A1LO - AVAL)"
  - name: ALBTRVAL
    type: float
    derivation:
      case:
        - when: "T_LO > T_HI"
          then: {source: T_LO}
        - when: "T_LO <= T_HI"
          then: {source: T_HI}
  - name: A1LO_H
    type: float
    derivation:
      compute:
        expr: "0.5 * A1LO"
  - name: A1HI_15
    type: float
    derivation:
      compute:
        expr: "1.5 * A1HI"
  - name: ANRIND
    type: str
    derivation:
      case:
        - when: "AVAL IS NULL"
          then: {literal: "N"}
        - when: "AVAL < A1LO_H"
          then: {literal: "L"}
        - when: "AVAL > A1HI_15"
          then: {literal: "H"}
        - when: "TRUE"
          then: {literal: "N"}
  - name: B_LO_H
    type: float
    derivation:
      compute:
        expr: "0.5 * B_LO"
  - name: B_HI_15
    type: float
    derivation:
      compute:
        expr: "1.5 * B_HI"
  - name: BNRIND
    type: str
    derivation:
      case:
        - when: "BASE IS NULL"
          then: {literal: ""}
        - when: "BASE < B_LO_H"
          then: {literal: "L"}
        - when: "BASE > B_HI_15"
          then: {literal: "H"}
        - when: "TRUE"
          then: {literal: "N"}
  # Flags
  - name: IS_UNSCHED
    type: str
    derivation:
      str_extract:
        source: VISIT
        pattern: "UNSCHEDULED"
        no_match: null
  - name: RK_ANL
    type: int
    derivation:
      rank:
        method: dense
        window:
          group_by: [STUDYID, USUBJID, PARAMCD]
          order_by:
            - variable: ALBTRVAL
              direction: desc
            - variable: LBSEQ
              direction: asc
          filter: "VISITNUM >= 4 AND VISITNUM <= 12 AND IS_UNSCHED IS NULL AND ALBTRVAL IS NOT NULL"
  - name: ANL01FL
    type: str
    derivation:
      case:
        - when: "RK_ANL = 1"
          then: {literal: "Y"}
        - when: "TRUE"
          then: {literal: ""}
  - name: RK_ENT
    type: int
    derivation:
      rank:
        method: dense
        window:
          group_by: [STUDYID, USUBJID, PARAMCD]
          order_by:
            - variable: AVISITN
              direction: desc
          filter: "AVISITN > 0 AND AVISITN < 99 AND IS_UNSCHED IS NULL AND VISITNUM <= 12"
  - name: AENTMTFL
    type: str
    derivation:
      case:
        - when: "AVISITN = 99 OR RK_ENT = 1"
          then: {literal: "Y"}
        - when: "TRUE"
          then: {literal: ""}
  # Record identifiers
  - name: LBSEQ
    type: float
    derivation: LB.LBSEQ
  - name: LBNRIND
    type: str
    derivation:
      first_available:
        sources: [LB.LBNRIND]
        missing: ""
  - name: LBSTRESN
    type: float
    derivation: LB.LBSTRESN
  # Row-template internals (derived in every template)
  - name: STUDYID_K
    type: str
  - name: USUBJID_K
    type: str
  - name: LBSEQ_S
    type: str
  - name: LBSEQ_PAD
    type: str
  - name: LBSEQ_K
    type: str
  - name: ENDPOINT
    type: str
  - name: ISUN
    type: str
  - name: SRC_AVISITN
    type: float
  - name: EOT_IND
    type: int
  - name: VIS_OK
    type: str
  - name: E2_VN
    type: float
  - name: E2_SEQ
    type: float
  - name: RN2
    type: int
  - name: EOT_VN
    type: float
  - name: EOT_LBCAT
    type: str

rows:
  - id: main
    dataset: LB
    filter: "LB.LBCAT = 'CHEMISTRY' AND (LB.VISIT LIKE '%WEEK%' OR LB.VISIT LIKE '%UNSCHEDULED%' OR LB.VISIT LIKE '%SCREENING%')"
    derivations:
      AVISIT:
        case:
          - when: "LB.LBBLFL = 'Y'"
            then: {literal: "Baseline"}
          - when: "ISUN IS NOT NULL"
            then: {literal: ""}
          - when: "TRUE"
            then:
              mapping:
                source: LB.VISIT
                dict: {"WEEK 2": "Week 2", "WEEK 4": "Week 4", "WEEK 6": "Week 6", "WEEK 8": "Week 8", "WEEK 12": "Week 12", "WEEK 16": "Week 16", "WEEK 20": "Week 20", "WEEK 24": "Week 24", "WEEK 26": "Week 26"}
                missing: null
      AVISITN:
        case:
          - when: "LB.LBBLFL = 'Y'"
            then: {literal: 0}
          - when: "ISUN IS NOT NULL"
            then: {literal: null}
          - when: "TRUE"
            then:
              str_extract:
                source: LB.VISIT
                pattern: "[0-9]+"
                no_match: null
      ISUN:
        str_extract:
          source: LB.VISIT
          pattern: "UNSCHEDULED"
          no_match: null
      STUDYID_K: {literal: null}
      USUBJID_K: {literal: null}
      LBSEQ_S: {literal: null}
      LBSEQ_PAD: {literal: null}
      LBSEQ_K: {literal: null}
      ENDPOINT: {literal: null}
      SRC_AVISITN: {literal: null}
      EOT_IND: {literal: null}
      VIS_OK: {literal: null}
      E2_VN: {literal: null}
      E2_SEQ: {literal: null}
      RN2: {literal: null}
      EOT_VN: {literal: null}
      EOT_LBCAT: {literal: null}
  - id: eot
    dataset: LB
    group_by: [LB.STUDYID, LB.USUBJID, LB.LBSEQ, LB.LBCAT, LB.VISITNUM, LB.VISIT, LB.LBTEST, LB.LBSTRESU, LB.LBTESTCD, LB.LBSTRESN, LB.LBBLFL, LB.LBDTC, LB.LBSTNRLO, LB.LBSTNRHI, LB.LBNRIND]
    filter: "EOT_LBCAT = 'CHEMISTRY' AND (ENDPOINT = 'Y' OR EOT_VN = 12)"
    derivations:
      AVISIT: {literal: "End of Treatment"}
      AVISITN: {literal: 99}
      EOT_LBCAT: LB.LBCAT
      EOT_VN: LB.VISITNUM
      STUDYID_K: LB.STUDYID
      USUBJID_K: LB.USUBJID
      LBSEQ_S: LB.LBSEQ
      LBSEQ_PAD:
        str_template:
          template: "                {LBSEQ_S}"
      LBSEQ_K:
        str_extract:
          source: LBSEQ_PAD
          pattern: ".{8}$"
      ENDPOINT: SUP_EP.QVAL
      ISUN: {literal: null}
      SRC_AVISITN: {literal: null}
      EOT_IND: {literal: null}
      VIS_OK: {literal: null}
      E2_VN: {literal: null}
      E2_SEQ: {literal: null}
      RN2: {literal: null}
  - id: eot2
    dataset: LB
    group_by: [LB.STUDYID, LB.USUBJID, LB.LBTESTCD, LB.LBSEQ, LB.LBCAT, LB.VISITNUM, LB.VISIT, LB.LBTEST, LB.LBSTRESU, LB.LBSTRESN, LB.LBBLFL, LB.LBDTC, LB.LBSTNRLO, LB.LBSTNRHI, LB.LBNRIND]
    filter: "RN2 = 1 AND EOT_IND = 0 AND SRC_AVISITN IS NOT NULL AND SRC_AVISITN <> 0 AND EOT_LBCAT = 'CHEMISTRY'"
    derivations:
      AVISIT: {literal: "End of Treatment"}
      AVISITN: {literal: 99}
      EOT_LBCAT: LB.LBCAT
      STUDYID_K: LB.STUDYID
      USUBJID_K: LB.USUBJID
      LBSEQ_S: LB.LBSEQ
      LBSEQ_PAD:
        str_template:
          template: "                {LBSEQ_S}"
      LBSEQ_K:
        str_extract:
          source: LBSEQ_PAD
          pattern: ".{8}$"
      ENDPOINT: SUP_EP.QVAL
      EOT_IND:
        case:
          - when: "ENDPOINT = 'Y' OR LB.VISITNUM = 12"
            then: {literal: 1}
          - when: "TRUE"
            then: {literal: 0}
      ISUN:
        str_extract:
          source: LB.VISIT
          pattern: "UNSCHEDULED"
          no_match: null
      SRC_AVISITN:
        case:
          - when: "LB.LBBLFL = 'Y'"
            then: {literal: 0}
          - when: "ISUN IS NOT NULL"
            then: {literal: null}
          - when: "TRUE"
            then:
              str_extract:
                source: LB.VISIT
                pattern: "[0-9]+"
                no_match: null
      VIS_OK:
        str_extract:
          source: LB.VISIT
          pattern: "WEEK|UNSCHEDULED|SCREENING"
          no_match: null
      E2_VN: LB.VISITNUM
      E2_SEQ: LB.LBSEQ
      RN2:
        row_number:
          window:
            group_by: [LB.STUDYID, LB.USUBJID, LB.LBTESTCD]
            order_by:
              - variable: EOT_IND
                direction: desc
              - variable: SRC_AVISITN
                direction: desc
              - variable: E2_SEQ
                direction: asc
            filter: "VIS_OK IS NOT NULL AND E2_VN <> 13 AND EOT_LBCAT = 'CHEMISTRY'"
      EOT_VN: {literal: null}

output:
  path: /tmp/adlbc-out.parquet
  columns: [STUDYID, SUBJID, USUBJID, TRTP, TRTPN, TRTA, TRTAN, TRTSDT, TRTEDT, AGE, AGEGR1, AGEGR1N, RACE, RACEN, SEX, COMP24FL, DSRAEFL, SAFFL, AVISIT, AVISITN, ADY, ADT, VISIT, VISITNUM, PARAM, PARAMCD, PARAMN, PARCAT1, AVAL, BASE, CHG, A1LO, A1HI, R2A1LO, R2A1HI, BR2A1LO, BR2A1HI, ANL01FL, ALBTRVAL, ANRIND, BNRIND, ABLFL, AENTMTFL, LBSEQ, LBNRIND, LBSTRESN]
