schema_version: "1.0"
domain: ADAE
keys: [STUDYID, USUBJID, AESEQ]
input:
  AE: input/ae.csv

output:
  path: adae.csv
  columns: [STUDYID, USUBJID, AESEQ, AESPID, AEREFNUM, AETERM, AETERMLO, AERELLC, AREL]

columns:
  - name: STUDYID
    type: str
    label: Study Identifier
    derivation: AE.STUDYID

  - name: USUBJID
    type: str
    label: Unique Subject Identifier
    derivation: AE.USUBJID

  - name: AESEQ
    type: int
    label: Sequence Number
    derivation: AE.AESEQ

  - name: AESPID
    type: str
    label: Sponsor-Defined Identifier
    derivation: AE.AESPID

  # The three digits after "AE-" become the number; a missing identifier
  # gives 0 and any other shape gives -1.
  - name: AEREFNUM
    type: int
    label: Adverse Event Reference Number
    derivation:
      str_extract:
        source: AESPID
        pattern: '^AE-([0-9]{3})$'
        group: 1
        missing: '0'
        no_match: '-1'
    verifications:
      - not_missing: {}
      - range:
          min: -1
          max: 999

  - name: AETERM
    type: str
    label: Reported Term for the Adverse Event
    derivation: AE.AETERM

  - name: AETERMLO
    type: str
    label: Reported Term in Lower Case
    derivation:
      str_case:
        source: AETERM
        to: lower
    verifications:
      not_missing: {}

  - name: AERELLC
    type: str
    label: Causality in Lower Case
    derivation:
      str_case:
        source: AE.AEREL
        to: lower
        missing: not reported

  # Upper-cases the lower-cased causality, so the "not reported" fill for a
  # missing causality arrives as NOT REPORTED.
  - name: AREL
    type: str
    label: Analysis Causality
    derivation:
      str_case:
        source: AERELLC
        to: upper
    verifications:
      - not_missing: {}
      - allowed_values:
          values: [RELATED, POSSIBLY RELATED, NOT RELATED, NOT REPORTED]

verifications:
  - unique:
      columns: [STUDYID, USUBJID, AESEQ]
  - row_count:
      min: 10
      max: 10
