STUDYID,DOMAIN,USUBJID,SESEQ,ETCD,ELEMENT,TAETORD,EPOCH,SESTDTC,SEENDTC,SESTDY,SEENDY,SEUPDES
YAMAA-01,SE,001,1,SCRN,Screening,1,SCREENING,2026-01-02,2026-01-06,-3,2,
YAMAA-01,SE,001,2,TRTA,Treatment A,2,TREATMENT,2026-01-06,2026-02-02,2,29,
YAMAA-01,SE,001,3,FUP,Follow-up,3,FOLLOW-UP,2026-02-02,2026-02-17,29,44,
YAMAA-01,SE,002,1,SCRN,Screening,1,SCREENING,2026-01-03,2026-01-06,-2,2,
YAMAA-01,SE,002,2,TRTB,Treatment B,2,TREATMENT,2026-01-06,2026-01-20,2,16,
YAMAA-01,SE,002,3,FUP,Follow-up,3,FOLLOW-UP,2026-01-20,2026-02-17,16,44,
