STUDYID,USUBJID,ASEQ,VSSEQ,PARAMCD,ADT,AVAL,TRTSDT,HEIGHTBL
YAMAA-01,YAMAA-01-101,1,1,HEIGHT,2025-01-06,175,2025-01-07,175
YAMAA-01,YAMAA-01-101,2,2,WEIGHT,2025-01-06,72.5,2025-01-07,175
YAMAA-01,YAMAA-01-101,3,3,WEIGHT,2025-01-27,73.1,2025-01-07,175
YAMAA-01,YAMAA-01-101,4,4,WEIGHT,2025-02-17,71.8,2025-01-07,175
YAMAA-01,YAMAA-01-102,1,,HEIGHT,2025-01-14,,2025-01-15,
YAMAA-01,YAMAA-01-102,2,,WEIGHT,2025-01-14,,2025-01-15,
YAMAA-01,YAMAA-01-102,3,1,WEIGHT,2025-02-04,88,2025-01-15,
YAMAA-01,YAMAA-01-102,4,,WEIGHT,2025-02-25,88,2025-01-15,
YAMAA-01,YAMAA-01-103,1,1,HEIGHT,2025-02-02,162,2025-02-03,162
YAMAA-01,YAMAA-01-103,2,2,WEIGHT,2025-02-02,58.4,2025-02-03,162
YAMAA-01,YAMAA-01-103,3,,WEIGHT,2025-02-23,58.4,2025-02-03,162
YAMAA-01,YAMAA-01-103,4,,WEIGHT,2025-03-16,58.4,2025-02-03,162
YAMAA-01,YAMAA-01-104,1,1,HEIGHT,2025-02-01,180,2025-02-10,180
YAMAA-01,YAMAA-01-104,2,2,HEIGHT,2025-02-20,181,2025-02-10,180
YAMAA-01,YAMAA-01-104,3,3,WEIGHT,2025-02-01,95.2,2025-02-10,180
YAMAA-01,YAMAA-01-104,4,,WEIGHT,2025-02-20,95.2,2025-02-10,180
YAMAA-01,YAMAA-01-104,5,,WEIGHT,2025-03-13,95.2,2025-02-10,180
YAMAA-01,YAMAA-01-105,1,1,HEIGHT,2025-03-01,168,2025-03-01,168
YAMAA-01,YAMAA-01-105,2,,WEIGHT,2025-03-01,,2025-03-01,168
YAMAA-01,YAMAA-01-105,3,2,WEIGHT,2025-03-22,64,2025-03-01,168
YAMAA-01,YAMAA-01-106,1,1,WEIGHT,2025-03-09,77.3,2025-03-10,
