schema_version: "1.0"
domain: AE
keys: [STUDYID, USUBJID, AESEQ]
input:
  AE_RAW: input/ae_raw.csv
  MEDDRA: input/meddra_26_1.csv
base: AE_RAW
metadata:
  dictionary: MedDRA
  dictionary_version: "26.1"

output:
  path: ae.csv
  columns: [DOMAIN, STUDYID, USUBJID, AESEQ, AETERM, AEDECOD, AEBODSYS]

columns:
  - name: DOMAIN
    type: str
    label: Domain Abbreviation
    derivation: {literal: AE}

  - name: STUDYID
    type: str
    label: Study Identifier
    derivation: AE_RAW.STUDYID

  - name: USUBJID
    type: str
    label: Unique Subject Identifier
    derivation: AE_RAW.USUBJID

  - name: AESEQ
    type: int
    label: Sequence Number
    derivation: AE_RAW.AESEQ

  - name: AETERM
    type: str
    label: Reported Term for the Adverse Event
    derivation: AE_RAW.AETERM

  # Both coded terms come from the dictionary row whose lowest-level term
  # equals the reported term exactly, letter case included. No such row, or
  # a missing reported term, gives NOT CODED.
  - name: AEDECOD
    type: str
    label: Dictionary-Derived Term
    derivation:
      lookup:
        dataset: MEDDRA
        key: {LLTNAME: AE_RAW.AETERM}
        value: PTNAME
        missing: NOT CODED

  - name: AEBODSYS
    type: str
    label: Body System or Organ Class
    derivation:
      lookup:
        dataset: MEDDRA
        key: {LLTNAME: AE_RAW.AETERM}
        value: SOCNAME
        missing: NOT CODED

verifications:
  - unique:
      columns: [STUDYID, USUBJID, AESEQ]
  - row_count:
      min: 8
      max: 8
