STUDYID,USUBJID,LBSEQ,LBTESTCD,LBSPEC,LBORRES,LBDTC,LBSTAT
YAMAA-01,YAMAA-01-101,1,ALT,SERUM,32,2026-01-05,
YAMAA-01,YAMAA-01-101,2,ALT,SERUM,35,2026-01-10,
YAMAA-01,YAMAA-01-101,3,ALT,SERUM,,2026-01-14,NOT DONE
YAMAA-01,YAMAA-01-101,4,ALT,SERUM,38,2026-01-15,
YAMAA-01,YAMAA-01-101,5,ALT,SERUM,40,2026-01-20,
YAMAA-01,YAMAA-01-101,6,GLUC,SERUM,5.1,2026-01-08,
YAMAA-01,YAMAA-01-101,7,GLUC,SERUM,5.4,2026-01-16,
YAMAA-01,YAMAA-01-101,8,K,SERUM,4.2,2026-01-09,
YAMAA-01,YAMAA-01-101,9,K,SERUM,4.5,2026-01-18,
YAMAA-01,YAMAA-01-101,10,K,URINE,60,2026-01-12,
YAMAA-01,YAMAA-01-101,11,K,URINE,62,2026-01-14,
YAMAA-01,YAMAA-01-102,12,ALT,SERUM,30,2026-02-01,
YAMAA-01,YAMAA-01-102,13,ALT,SERUM,33,2026-02-10,
YAMAA-01,YAMAA-01-102,14,ALT,SERUM,34,2026-02-10,
