SUPPMH:
  - formoid: ["FO.NCT00789880.MH"]
    keys: ["StudyOID", "SubjectKey", "ItemGroupRepeatKey"]
    columns:
      STUDYID:
        source: "StudyOID"
      RDOMAIN:
        literal: "MH"
      USUBJID:
        source: "SubjectKey"
      IDVAR:
        literal: "MHSEQ"
      IDVARVAL:
        source: "MH.MHSEQ"
        merge_on: ["USUBJID", "ItemGroupRepeatKey"]
      QNAM:
        literal: "ATOPY"
      QLABEL:
        literal: "Atopy History"
      QVAL:
        source: "IT.NCT00789880.MH.ATOPY"
      QORIG:
        literal: "CRF"
      QEVAL:
        literal: ""
