STUDYID,USUBJID,CMSEQ,CMCAT,CMSCAT,CMTRT,CMSTDTC,CMSTDTC_IMP
YAMAA-01,YAMAA-01-101,1,ON TREATMENT,CHEMOTHERAPY,DOCETAXEL,2025-03-10,2025-03-10
YAMAA-01,YAMAA-01-102,1,PRIOR TREATMENT,CHEMOTHERAPY,CARBOPLATIN,2024-11-04,2024-11-04
YAMAA-01,YAMAA-01-102,2,ON TREATMENT,CHEMOTHERAPY,GEMCITABINE,2025-05-05,2025-05-05
YAMAA-01,YAMAA-01-104,1,PRIOR TREATMENT,CHEMOTHERAPY,CISPLATIN,2024-10-22,2024-10-22
YAMAA-01,YAMAA-01-104,2,ON TREATMENT,CHEMOTHERAPY,VINORELBINE,2025-01-10,2025-01-10
YAMAA-01,YAMAA-01-105,1,ON TREATMENT,IMMUNOTHERAPY,NIVOLUMAB,2025-06-01,2025-06-01
YAMAA-01,YAMAA-01-105,2,ON TREATMENT,CHEMOTHERAPY,PEMETREXED,2025-04-15,2025-04-15
YAMAA-01,YAMAA-01-106,1,ON TREATMENT,IMMUNOTHERAPY,PEMBROLIZUMAB,,
YAMAA-01,YAMAA-01-107,1,ON TREATMENT,CHEMOTHERAPY,TRASTUZUMAB,2025-04,2025-04-15
