STUDYID,USUBJID,AESEQ,AESPID,AETERM,AEREL
CATH-01,CATH-01-001,1,AE-001,Headache,RELATED
CATH-01,CATH-01-001,2,,HEADACHE,Possibly Related
CATH-01,CATH-01-001,3,BAD-ID,Nausea,
CATH-01,CATH-01-002,1,AE-104,Fatigue,NOT RELATED
CATH-01,CATH-01-002,2,,Dizziness,NOT RELATED
CATH-01,CATH-01-002,3,AE-999,hEADACHE,related
CATH-01,CATH-01-003,1,AE-000,Vomiting,NOT RELATED
CATH-01,CATH-01-003,2,AE-1000,Abdominal Pain,Possibly Related
CATH-01,CATH-01-003,3,ae-007,Rash,
CATH-01,CATH-01-003,4,AE-007,Pruritus,Not Related
