DOMAIN,STUDYID,USUBJID,MHSEQ,MHTERM,MHCAT,MHPRESP,MHOCCUR,MHSTAT
MH,YAMAA-01,YAMAA-01-0001,1,DIABETES MELLITUS,DISEASE-SPECIFIC HISTORY,Y,Y,
MH,YAMAA-01,YAMAA-01-0001,2,HYPERTENSION,DISEASE-SPECIFIC HISTORY,Y,N,
MH,YAMAA-01,YAMAA-01-0001,3,ASTHMA,DISEASE-SPECIFIC HISTORY,Y,,NOT DONE
MH,YAMAA-01,YAMAA-01-0001,4,Seasonal allergies,GENERAL HISTORY,,,
MH,YAMAA-01,YAMAA-01-0001,5,Migraine,GENERAL HISTORY,,,
MH,YAMAA-01,YAMAA-01-0001,6,Back pain,GENERAL HISTORY,,,
MH,YAMAA-01,YAMAA-01-0002,1,DIABETES MELLITUS,DISEASE-SPECIFIC HISTORY,Y,N,
MH,YAMAA-01,YAMAA-01-0002,2,HYPERTENSION,DISEASE-SPECIFIC HISTORY,Y,Y,
MH,YAMAA-01,YAMAA-01-0002,3,ASTHMA,DISEASE-SPECIFIC HISTORY,Y,N,
MH,YAMAA-01,YAMAA-01-0002,4,Appendectomy,GENERAL HISTORY,,,
