schema_version: "1.0"
domain: FA
keys: [STUDYID, USUBJID, FASEQ]
input:
  ODM: input/odm.csv
  # The same file under a second name, so the event term lookup can read the
  # adverse event items while the findings items build the rows.
  ODM_AE: input/odm.csv

intermediates:
  - id: AE_TERM
    dataset: ODM_AE
    filter: "ODM_AE.ItemOID = 'IT.AE.AETERM'"
    key:
      StudyOID: ODM.StudyOID
      SubjectKey: ODM.SubjectKey
      StudyEventOID: ODM.StudyEventOID
      StudyEventRepeatKey: ODM.StudyEventRepeatKey
    no_match: null

output:
  path: fa.csv
  columns: [DOMAIN, STUDYID, USUBJID, FASEQ, FATESTCD, FATEST, FAOBJ, FACAT, FAORRES, FAORRESU, FASTRESC, FASTRESN, FASTRESU, FALNKID, FADTC]
  order_by: [FASEQ]

columns:
  - name: DOMAIN
    type: str
    label: Domain Abbreviation
    derivation: {literal: FA}

  - name: STUDYID
    type: str
    label: Study Identifier
    derivation: ODM.StudyOID

  - name: USUBJID
    type: str
    label: Unique Subject Identifier
    derivation: ODM.SubjectKey

  - name: FATESTCD
    type: str
    label: Findings About Test Short Name

  - name: FATEST
    type: str
    label: Findings About Test Name

  - name: FAOBJ
    type: str
    label: Object of the Observation
    verifications:
      not_missing: {}

  - name: FACAT
    type: str
    label: Category for Findings About
    derivation: {literal: AE}

  - name: FAORRES
    type: str
    label: Result or Finding in Original Units

  - name: FAORRESU
    type: str
    label: Original Units

  - name: FASTRESC
    type: str
    label: Character Result/Finding in Std Format

  - name: FASTRESN
    type: float
    label: Numeric Result/Finding in Standard Units

  - name: FASTRESU
    type: str
    label: Standard Units

  - name: FALNKID
    type: str
    label: Link Identifier

  - name: FADTC
    type: date
    label: Date/Time of Collection

  # Test order within a linked event, for FASEQ.
  - name: TESTORD
    type: int
    label: Test order within a linked event
    derivation:
      case:
        - when: "FATESTCD = 'LOC'"
          then: {literal: 1}
        - when: "FATESTCD = 'SIZE'"
          then: {literal: 2}
        - when: "FATESTCD = 'BIOPSY'"
          then: {literal: 3}

  - name: FASEQ
    type: int
    label: Sequence Number
    derivation:
      row_number:
        window:
          group_by: [STUDYID, USUBJID]
          order_by: [FALNKID, TESTORD, FAORRES]

rows:
  # One row template per test, each grouping the items by event occurrence:
  # an occurrence gives one record per answered test, and none when the test
  # has no answer. FAOBJ is the adverse event term on the same occurrence. It
  # is checked on emitted rows. An occurrence with no findings and no term
  # contributes no row and needs no event term.
  - id: location
    dataset: ODM
    group_by: [ODM.StudyOID, ODM.SubjectKey, ODM.StudyEventOID, ODM.StudyEventRepeatKey]
    filter: "FAORRES IS NOT NULL"
    derivations:
      FATESTCD: {literal: LOC}
      FATEST: {literal: Location}
      FAOBJ: AE_TERM.Value
      FAORRES:
        aggregate:
          filter: "ODM.ItemOID = 'IT.FA.LOCATION'"
          expr: "ONLY(ODM.Value)"
      FASTRESC: FAORRES
      FAORRESU: {literal: null}
      FASTRESN: {literal: null}
      FASTRESU: {literal: null}
      FALNKID:
        aggregate:
          filter: "ODM.ItemOID = 'IT.FA.AELNKID'"
          expr: "ONLY(ODM.Value)"
      FADTC:
        aggregate:
          filter: "ODM.ItemOID = 'IT.FA.FADTC'"
          expr: "ONLY(ODM.Value)"

  - id: size
    dataset: ODM
    group_by: [ODM.StudyOID, ODM.SubjectKey, ODM.StudyEventOID, ODM.StudyEventRepeatKey]
    filter: "FAORRES IS NOT NULL"
    derivations:
      FATESTCD: {literal: SIZE}
      FATEST: {literal: Size}
      FAOBJ: AE_TERM.Value
      FAORRES:
        aggregate:
          filter: "ODM.ItemOID = 'IT.FA.SIZE'"
          expr: "ONLY(ODM.Value)"
      FAORRESU:
        aggregate:
          filter: "ODM.ItemOID = 'IT.FA.SIZEU'"
          expr: "ONLY(ODM.Value)"
      FASTRESC: FAORRES
      FASTRESN: FAORRES
      FASTRESU: FAORRESU
      FALNKID:
        aggregate:
          filter: "ODM.ItemOID = 'IT.FA.AELNKID'"
          expr: "ONLY(ODM.Value)"
      FADTC:
        aggregate:
          filter: "ODM.ItemOID = 'IT.FA.FADTC'"
          expr: "ONLY(ODM.Value)"

  - id: biopsy
    dataset: ODM
    group_by: [ODM.StudyOID, ODM.SubjectKey, ODM.StudyEventOID, ODM.StudyEventRepeatKey]
    filter: "FAORRES IS NOT NULL"
    derivations:
      FATESTCD: {literal: BIOPSY}
      FATEST: {literal: Biopsied}
      FAOBJ: AE_TERM.Value
      FAORRES:
        aggregate:
          filter: "ODM.ItemOID = 'IT.FA.BIOPSY'"
          expr: "ONLY(ODM.Value)"
      FASTRESC: FAORRES
      FAORRESU: {literal: null}
      FASTRESN: {literal: null}
      FASTRESU: {literal: null}
      FALNKID:
        aggregate:
          filter: "ODM.ItemOID = 'IT.FA.AELNKID'"
          expr: "ONLY(ODM.Value)"
      FADTC:
        aggregate:
          filter: "ODM.ItemOID = 'IT.FA.FADTC'"
          expr: "ONLY(ODM.Value)"
