schema_version: "1.0"
domain: ADOE
keys: [STUDYID, USUBJID, OESEQ]
input:
  OE:
    path: input/oe.csv
  ADSL:
    path: input/adsl.csv
base: OE

output:
  path: adoe.csv
  columns: [STUDYID, USUBJID, OESEQ, PARAMCD, OELAT, AVAL, AFEYE]

columns:
  - name: STUDYID
    type: str
    label: Study Identifier
    derivation: OE.STUDYID

  - name: USUBJID
    type: str
    label: Unique Subject Identifier
    derivation: OE.USUBJID

  - name: OESEQ
    type: int
    label: Sequence Number
    derivation: OE.OESEQ

  - name: PARAMCD
    type: str
    label: Parameter Code
    derivation: OE.OETESTCD

  - name: OELAT
    type: str
    label: Laterality
    derivation: OE.OELAT
    verifications:
      - allowed_values:
          values: [LEFT, RIGHT, BILATERAL]

  - name: AVAL
    type: float
    label: Analysis Value
    derivation: OE.OESTRESN

  # The subject's assigned eye from ADSL, matched on STUDYID and USUBJID;
  # empty for a subject ADSL does not list. It is not in the output.
  - name: STUDYEYE
    type: str
    label: Assigned Study Eye
    derivation: ADSL.STUDYEYE
    verifications:
      - allowed_values:
          values: [LEFT, RIGHT, BILATERAL]

  # First match wins: a bilateral measurement is Both Eyes; with both eyes
  # assigned, a single eye is the study eye; otherwise the matching eye is
  # the study eye and the other the fellow eye. With no assigned eye or no
  # laterality no branch fires, so AFEYE is empty.
  - name: AFEYE
    type: str
    label: Analysis Eye
    derivation:
      case:
        - when: "OELAT = 'BILATERAL' AND STUDYEYE IS NOT NULL"
          then: {literal: Both Eyes}
        - when: "STUDYEYE = 'BILATERAL' AND OELAT IS NOT NULL"
          then: {literal: Study Eye}
        - when: "OELAT = STUDYEYE"
          then: {literal: Study Eye}
        - when: "STUDYEYE IS NOT NULL AND OELAT IS NOT NULL"
          then: {literal: Fellow Eye}
    verifications:
      - allowed_values:
          values: [Study Eye, Fellow Eye, Both Eyes]

verifications:
  - unique:
      columns: [STUDYID, USUBJID, OESEQ]
  - row_count:
      min: 10
      max: 10
  - implies:
      id: study-eye-record-carries-the-study-laterality
      when: "AFEYE = 'Study Eye'"
      then: "OELAT = STUDYEYE OR STUDYEYE = 'BILATERAL'"
  - implies:
      id: both-eyes-record-is-bilateral
      when: "AFEYE = 'Both Eyes'"
      then: "OELAT = 'BILATERAL'"
