STUDYID,USUBJID,ASTDT,AESEQ,AEDECOD
PILOT8,P8-101,2026-01-10,1,Flu
PILOT8,P8-101,2026-02-04,2,Cough
PILOT8,P8-103,2025-12-15,1,Flu
PILOT8,P8-104,2026-12-31,1,Cough
PILOT8,P8-105,2026-01-15,1,Flu
PILOT8,P8-105,2026-01-15,2,Cough
PILOT8,P8-108,2026-01-10,1,Flu
