schema_version: "1.0"
domain: LB
keys: [STUDYID, USUBJID, LBSEQ]
input:
  BX_RAW: input/bx_raw.csv

output:
  path: lb.csv
  columns: [DOMAIN, STUDYID, USUBJID, LBSEQ, LBTESTCD, LBTEST, LBSPEC, LBLOC, LBORRES, LBORRESU, LBSTRESN, LBSTAT]

columns:
  - name: DOMAIN
    type: str
    label: Domain Abbreviation
    derivation: {literal: LB}

  - name: STUDYID
    type: str
    label: Study Identifier
    derivation: BX_RAW.STUDYID

  - name: USUBJID
    type: str
    label: Unique Subject Identifier
    derivation: BX_RAW.USUBJID

  - name: LBTESTCD
    type: str
    label: Lab Test or Examination Short Name
    derivation: {literal: IL13}

  - name: LBTEST
    type: str
    label: Lab Test or Examination Name
    derivation: {literal: Interleukin 13}

  - name: LBSPEC
    type: str
    label: Specimen Material Type
    derivation: {literal: SKIN}

  - name: LBLOC
    type: str
    label: Location Used for Measurement

  # Numbered within each subject in text order of LBLOC, so a lesional
  # record comes before the non-lesional one.
  - name: LBSEQ
    type: int
    label: Sequence Number
    derivation:
      row_number:
        window:
          group_by: [STUDYID, USUBJID]
          order_by: [LBLOC, LBTESTCD]

  - name: LBORRES
    type: str
    label: Result or Finding in Original Units

  - name: LBORRESU
    type: str
    label: Original Units
    derivation: BX_RAW.RESU

  # The result text read as a number: a blank stays missing, and a result
  # that is not a number stops the run.
  - name: LBSTRESN
    type: float
    label: Numeric Result/Finding in Standard Units
    derivation: LBORRES

  - name: LBSTAT
    type: str
    label: Completion Status
    derivation:
      case:
        - when: "LBORRES IS NULL"
          then: {literal: NOT DONE}
    verifications:
      allowed_values:
        id: lbstat_allowed_values
        values: [NOT DONE]

rows:
  # Only for a subject whose cohort is recorded and is not NONAD.
  - id: lesional
    filter: "BX_RAW.COHORT <> 'NONAD'"
    derivations:
      LBLOC: {literal: LESIONAL}
      LBORRES: BX_RAW.LESRES

  # Every subject.
  - id: non_lesional
    derivations:
      LBLOC: {literal: NON-LESIONAL}
      LBORRES: BX_RAW.NLESRES

verifications:
  - unique:
      id: unique_studyid_usubjid_lbseq
      columns: [STUDYID, USUBJID, LBSEQ]
  - row_count:
      id: row_count
      min: 5
      max: 5
  - implies:
      id: not-done-record-has-no-result
      when: "LBSTAT = 'NOT DONE'"
      then: "LBORRES IS NULL AND LBSTRESN IS NULL"
  - implies:
      id: collected-result-is-not-flagged
      when: "LBORRES IS NOT NULL"
      then: "LBSTAT IS NULL"
