STUDYID,USUBJID,RSSEQ,PARAMCD,PARAM,RSDTC,ADT,ADY,AVALC,AVAL,ANL01FL
YAMAA-01,YAMAA-01-101,1,OVR,Overall Response by Investigator,2025-02-03,2025-02-03,29,PR,2,Y
YAMAA-01,YAMAA-01-101,2,OVR,Overall Response by Investigator,2025-03-17,2025-03-17,71,CR,1,Y
YAMAA-01,YAMAA-01-101,3,OVR,Overall Response by Investigator,2025-04-28,2025-04-28,113,PD,5,Y
YAMAA-01,YAMAA-01-102,1,OVR,Overall Response by Investigator,2025-02-10,2025-02-10,29,SD,3,
YAMAA-01,YAMAA-01-102,2,OVR,Overall Response by Investigator,2025-02-10,2025-02-10,29,PD,5,Y
YAMAA-01,YAMAA-01-102,3,OVR,Overall Response by Investigator,2025-03-24,2025-03-24,71,NE,6,Y
YAMAA-01,YAMAA-01-103,1,OVR,Overall Response by Investigator,2025-03,2025-03-01,41,NON-CR/NON-PD,4,Y
YAMAA-01,YAMAA-01-104,1,OVR,Overall Response by Investigator,2025-02-17,2025-02-17,22,SD,3,Y
YAMAA-01,YAMAA-01-104,2,OVR,Overall Response by Investigator,2025-02-17,2025-02-17,22,SD,3,
YAMAA-01,YAMAA-01-105,3,OVR,Overall Response by Investigator,2025-05-05,2025-05-05,92,CR,1,Y
YAMAA-01,YAMAA-01-106,1,OVR,Overall Response by Investigator,2025,2025-01-01,1,PR,2,Y
YAMAA-01,YAMAA-01-107,1,OVR,Overall Response by Investigator,2025-01-06,2025-01-06,1,CR,1,Y
YAMAA-01,YAMAA-01-108,1,OVR,Overall Response by Investigator,2025-02-10,2025-02-10,29,SD,3,
YAMAA-01,YAMAA-01-108,2,OVR,Overall Response by Investigator,2025-02-10,2025-02-10,29,PD,5,
YAMAA-01,YAMAA-01-108,3,OVR,Overall Response by Investigator,2025-02-10,2025-02-10,29,NE,6,Y
YAMAA-01,YAMAA-01-108,4,OVR,Overall Response by Investigator,2025-02-10,2025-02-10,29,NE,6,
