DOMAIN,STUDYID,USUBJID,CMSEQ,CMTRT,CMSTDTC,CMENDTC,CMROUTE,CMINDC
CM,YAMAA-01,YAMAA-01-0001,1,Acetaminophen,2025-01-01,2025-01-03,ORAL,Headache
CM,YAMAA-01,YAMAA-01-0001,2,Cetirizine,2025-01-05,,ORAL,Seasonal allergies
CM,YAMAA-01,YAMAA-01-0001,3,Acetaminophen,2025-01-12,2025-01-13,ORAL,Fever
CM,YAMAA-01,YAMAA-01-0002,1,Hydrocortisone cream,2025-02-03,2025-02-07,TOPICAL,Rash
