STUDYID,USUBJID,PARAMCD,AVISIT,PCHG
YAMAA-01,YAMAA-01-101,EASI,WEEK 4,-80
YAMAA-01,YAMAA-01-101,EASI,WEEK 8,-88
YAMAA-01,YAMAA-01-102,EASI,WEEK 4,-50
YAMAA-01,YAMAA-01-103,EASI,WEEK 4,-75
YAMAA-01,YAMAA-01-104,EASI,WEEK 4,-74.9
YAMAA-01,YAMAA-01-105,EASI,WEEK 4,-90
YAMAA-01,YAMAA-01-106,EASI,WEEK 4,
YAMAA-01,YAMAA-01-107,EASI,WEEK 4,
YAMAA-01,YAMAA-01-108,EASI,WEEK 4,-60
YAMAA-01,YAMAA-01-109,EASI,WEEK 4,
