STUDYID,USUBJID,PARAMCD,VSSEQ,VISIT,VISITNUM,ADT,ADY,AVAL
CATH,CATH-UCSD-0001,SYSBP,1,SCREENING,1,2025-01-02,-6,128
CATH,CATH-UCSD-0001,SYSBP,2,BASELINE,2,2025-01-08,1,132
CATH,CATH-UCSD-0001,SYSBP,3,UNSCHEDULED,,2025-01-15,8,145
CATH,CATH-UCSD-0001,SYSBP,4,WEEK 2,3,2025-01-22,15,138
CATH,CATH-UCSD-0001,SYSBP,5,WEEK 4,4,2025-02-05,29,130
CATH,CATH-UCSD-0001,SYSBP,6,WEEK 8,5,2025-03-08,60,126
CATH,CATH-UCSD-0002,SYSBP,1,BASELINE,2,2025-02-08,1,118
CATH,CATH-UCSD-0002,SYSBP,2,WEEK 2,3,2025-02-21,14,122
CATH,CATH-UCSD-0002,SYSBP,3,WEEK 4,4,,,120
CATH,CATH-UCSD-0002,SYSBP,4,UNSCHEDULED,,2025-02-23,16,121
CATH,CATH-UCSD-0002,SYSBP,5,UNSCHEDULED,,2027-11-04,1000,119
CATH,CATH-UCSD-0002,SYSBP,6,UNSCHEDULED,,2028-02-12,1100,117
CATH2,CATH-UCSD-0001,SYSBP,1,BASELINE,2,2025-06-02,1,124
CATH2,CATH-UCSD-0001,SYSBP,2,WEEK 2,3,2025-06-15,14,120
