STUDYID,USUBJID,PARAMCD,PARAM,ADT,TRTSDT,TRT01A,AVAL,AVALU,ABLFL,BASE,CHG,PCHG,ASEQ
YAMAA-01,YAMAA-01-101,ALT,Alanine Aminotransferase,2025-01-01,2025-01-02,Study Drug 50 mg,10,U/L,Y,10,0,0,1
YAMAA-01,YAMAA-01-101,ALT,Alanine Aminotransferase,2025-01-08,2025-01-02,Study Drug 50 mg,15,U/L,,10,5,50,2
YAMAA-01,YAMAA-01-102,ALT,Alanine Aminotransferase,2025-01-01,2025-01-02,Study Drug 100 mg,8,U/L,Y,8,0,0,1
YAMAA-01,YAMAA-01-102,ALT,Alanine Aminotransferase,2025-01-08,2025-01-02,Study Drug 100 mg,12,U/L,,8,4,50,2
YAMAA-01,YAMAA-01-103,ALT,Alanine Aminotransferase,2025-01-01,2025-01-02,Placebo,0,U/L,Y,0,0,,1
YAMAA-01,YAMAA-01-103,ALT,Alanine Aminotransferase,2025-01-08,2025-01-02,Placebo,5,U/L,,0,5,,2
YAMAA-01,YAMAA-01-105,ALT,Alanine Aminotransferase,2024-12-20,2025-01-02,Placebo,22,U/L,Y,22,0,0,1
YAMAA-01,YAMAA-01-106,ALT,Alanine Aminotransferase,2025-01-02,2025-01-02,Study Drug 50 mg,30,U/L,Y,30,0,0,1
YAMAA-01,YAMAA-01-106,ALT,Alanine Aminotransferase,2025-01-09,2025-01-02,Study Drug 50 mg,36,U/L,,30,6,20,2
YAMAA-01,YAMAA-01-101,ALTSI,Alanine Aminotransferase (SI),2025-01-01,2025-01-02,Study Drug 50 mg,0.16699999999999998,ukat/L,Y,0.16699999999999998,0,0,3
YAMAA-01,YAMAA-01-101,ALTSI,Alanine Aminotransferase (SI),2025-01-08,2025-01-02,Study Drug 50 mg,0.2505,ukat/L,,0.16699999999999998,0.08350000000000002,50.000000000000014,4
YAMAA-01,YAMAA-01-102,ALTSI,Alanine Aminotransferase (SI),2025-01-01,2025-01-02,Study Drug 100 mg,0.1336,ukat/L,Y,0.1336,0,0,3
YAMAA-01,YAMAA-01-102,ALTSI,Alanine Aminotransferase (SI),2025-01-08,2025-01-02,Study Drug 100 mg,0.2004,ukat/L,,0.1336,0.0668,50,4
YAMAA-01,YAMAA-01-103,ALTSI,Alanine Aminotransferase (SI),2025-01-01,2025-01-02,Placebo,0,ukat/L,Y,0,0,,3
YAMAA-01,YAMAA-01-103,ALTSI,Alanine Aminotransferase (SI),2025-01-08,2025-01-02,Placebo,0.08349999999999999,ukat/L,,0,0.08349999999999999,,4
YAMAA-01,YAMAA-01-105,ALTSI,Alanine Aminotransferase (SI),2024-12-20,2025-01-02,Placebo,0.3674,ukat/L,Y,0.3674,0,0,2
YAMAA-01,YAMAA-01-106,ALTSI,Alanine Aminotransferase (SI),2025-01-02,2025-01-02,Study Drug 50 mg,0.501,ukat/L,Y,0.501,0,0,3
YAMAA-01,YAMAA-01-106,ALTSI,Alanine Aminotransferase (SI),2025-01-09,2025-01-02,Study Drug 50 mg,0.6012,ukat/L,,0.501,0.10019999999999996,19.999999999999993,4
YAMAA-01,YAMAA-01-101,AST,Aspartate Aminotransferase,2025-01-01,2025-01-02,Study Drug 50 mg,20,U/L,Y,20,0,0,5
YAMAA-01,YAMAA-01-101,AST,Aspartate Aminotransferase,2025-01-08,2025-01-02,Study Drug 50 mg,18,U/L,,20,-2,-10,6
