STUDYID,USUBJID,AESEQ,AEDECOD,ASTDT,AFTCOVFL
XYZ,1,1,HEADACHE,2023-01-01,
XYZ,1,2,COVID-19,2023-01-05,
XYZ,1,3,COUGH,2023-01-05,Y
XYZ,1,4,FATIGUE,2023-01-08,Y
XYZ,2,1,NAUSEA,2023-02-01,
XYZ,2,2,FATIGUE,2023-02-04,
XYZ,3,1,COVID-19,2023-03-01,
XYZ,3,2,COVID-19,2023-03-02,Y
XYZ,3,3,FEVER,2023-03-03,Y
