STUDYID,USUBJID,AESEQ,AESTDTC,AESTDTM,AETERM,SCORE
PILOT7,P7-101,1,2025-01-15,,INF_REACTION,-1
PILOT7,P7-101,2,,2025-02-01T09:30,INF_REACTION,-2
PILOT7,P7-102,1,,,INF_REACTION,0
PILOT7,P7-103,1,2025-01-20,,INFXREACTION,0
PILOT7,P7-103,2,2025-01-01,,INF_REACTION,-1.5
PILOT7,P7-103,3,2025-01-31,,INF_,0
PILOT7,P7-104,1,2024-12-31,,INF_REACTION,0
PILOT7,P7-104,2,,2025-02-01T09:29,INF_REACTION,0
PILOT7,P7-104,3,,2025-02-01T09:30,INF_REACTION,-1.5
PILOT7,P7-105,1,2025-01-15,,INF,0
PILOT7,P7-105,2,2025-01-15,,INF_REACTION,
PILOT7,P7-105,3,2025-01-15,,INF_REACTION,-1.6
