DOMAIN,STUDYID,USUBJID,LBSEQ,LBTESTCD,LBSTRESN,LBTOXGR
LB,PILOT7,P7-401,1,ANC,1.6,1
LB,PILOT7,P7-401,2,ANC,0.75,3
LB,PILOT7,P7-402,1,ANC,0.08,4
LB,PILOT7,P7-405,1,ANC,0.5,3
LB,PILOT7,P7-405,2,ANC,1,2
LB,PILOT7,P7-405,3,ANC,1.5,1
LB,PILOT7,P7-405,4,ANC,1.8,0
LB,PILOT7,P7-403,1,HGB,12.5,1
LB,PILOT7,P7-404,1,HGB,12.5,0
LB,PILOT7,P7-404,2,HGB,9,2
