STUDYID,USUBJID,RSSEQ,RSTESTCD,RSDTC,RSSTRESC,ADEQFL
PILOT7,P7-301,1,OVRLRESP,2025-01-01,SD,Y
PILOT7,P7-301,2,OVRLRESP,2025-02-19,PD,Y
PILOT7,P7-302,1,OVRLRESP,2025-01-01,SD,Y
PILOT7,P7-302,2,OVRLRESP,2025-01-22,SD,Y
PILOT7,P7-303,1,OVRLRESP,2025-01-01,SD,Y
PILOT7,P7-303,2,OVRLRESP,2025-02-12,SD,Y
PILOT7,P7-304,1,OVRLRESP,2025-01-01,SD,Y
PILOT7,P7-304,2,OVRLRESP,2025-01-22,SD,Y
PILOT7,P7-304,3,OVRLRESP,2025-02-20,PD,N
PILOT7,P7-305,1,OVRLRESP,2025-01-01,SD,Y
