DOMAIN,STUDYID,USUBJID,DSCAT,DSSCAT,DSTERM,DSDECOD,DSSTDTC,DSSEQ
DS,STUDY01,001,DISPOSITION EVENT,STUDY TREATMENT,COMPLETED,COMPLETED,2024-03-15,1
DS,STUDY01,001,DISPOSITION EVENT,STUDY,COMPLETED,COMPLETED,2024-06-20,2
DS,STUDY01,002,DISPOSITION EVENT,STUDY TREATMENT,Severe nausea,ADVERSE EVENT,2024-04-02,1
DS,STUDY01,002,DISPOSITION EVENT,STUDY,COMPLETED,COMPLETED,2024-06-18,2
DS,STUDY01,003,DISPOSITION EVENT,STUDY TREATMENT,COMPLETED,COMPLETED,2024-02-28,1
DS,STUDY01,003,DISPOSITION EVENT,STUDY,Moving abroad,OTHER,2024-05-10,2
