STUDYID,USUBJID,DSSEQ,DSDECOD,DSDTC
YAMAA-01,YAMAA-01-101,1,RANDOMIZED,2024-01-12
YAMAA-01,YAMAA-01-101,2,COMPLETED,2024-02-10
YAMAA-01,YAMAA-01-101,3,DISCONTINUED,2024-03-01
YAMAA-01,YAMAA-01-102,1,COMPLETED,
YAMAA-01,YAMAA-01-103,1,ADVERSE EVENT,2024-02-20
YAMAA-01,YAMAA-01-105,1,ADVERSE EVENT,2024-01-05
YAMAA-01,YAMAA-01-106,1,COMPLETED,2024-03-10
YAMAA-01,YAMAA-01-107,1,SCREEN FAILURE,2024-01-08
YAMAA-01,YAMAA-01-108,1,COMPLETED,2024-04-01
