STUDYID,USUBJID,EXTRT,EXSEQ,EXDOSE
YAMAA-01,YAMAA-01-101,Pembrolizumab,1,200
YAMAA-01,YAMAA-01-101,Pembrolizumab,2,
YAMAA-01,YAMAA-01-101,Pembrolizumab,3,200
YAMAA-01,YAMAA-01-101,Pemetrexed,4,500
YAMAA-01,YAMAA-01-101,Pemetrexed,5,450
YAMAA-01,YAMAA-01-101,Pemetrexed,6,500
YAMAA-01,YAMAA-01-102,Saline placebo,1,0
YAMAA-01,YAMAA-01-102,Saline placebo,2,0
YAMAA-01,YAMAA-01-102,Saline placebo,3,0
YAMAA-01,YAMAA-01-103,Nivolumab,1,240
YAMAA-01,YAMAA-01-103,Nivolumab,1,240
YAMAA-01,YAMAA-01-105,Daratumumab,1,900
