STUDYID,USUBJID,CMSEQ,CMTRT,CMSTDTC,CMENDTC
T1,S01,1,DRUG A,2020-01-01,2020-01-05
T1,S01,2,DRUG B,2020-01-05,2020-01-15
T1,S01,3,DRUG C,2020-01-15,2020-01-25
T1,S01,4,DRUG D,2020-01-25,2020-01-30
T1,S01,5,DRUG E,2020-01-05,
T1,S01,6,DRUG F,,
T1,S02,1,DRUG G,2020-01-10,2020-01-15
T1,S03,1,DRUG H,2020-01-12,2020-01-15
