AE:
  - formoid: ["FO.NCT00789880.AE"]
    keys: ["StudyOID", "SubjectKey", "StudyEventOID", "ItemGroupRepeatKey"]
    columns:
      STUDYID:
        source: "StudyOID"
      DOMAIN:
        literal: "AE"
      USUBJID:
        source: "SubjectKey"
      AESEQ:
        group: ["USUBJID"]
      AETERM:
        source: "IT.NCT00789880.AE.AETERM"
      AEDECOD:
        source: "IT.NCT00789880.AE.AEDECOD"
      AEBODSYS:
        source: "IT.NCT00789880.AE.AEBODSYS"
      AESEV:
        source: "IT.NCT00789880.AE.AESEV"
      AESER:
        source: "IT.NCT00789880.AE.AESER"
      AEREL:
        source: "IT.NCT00789880.AE.AEREL"
      AEACN:
        source: "IT.NCT00789880.AE.AEACN"
      AEOUT:
        source: "IT.NCT00789880.AE.AEOUT"
      AETOXGR:
        source: "IT.NCT00789880.AE.AETOXGR"
      AESTDTC:
        source: "IT.NCT00789880.AE.AESTDTC"
      AESTDY:
        function_: "calculate_study_day"
        args: ["AESTDTC", "_DM_REF.RFSTDTC"]
