MH:
  - formoid: ["FO.NCT00789880.MH"]
    keys: ["StudyOID", "SubjectKey", "ItemGroupRepeatKey"]
    columns:
      STUDYID:
        source: "StudyOID"
      DOMAIN:
        literal: "MH"
      USUBJID:
        source: "SubjectKey"
      MHSEQ:
        group: ["USUBJID"]
      MHTERM:
        source: "IT.NCT00789880.MH.MHTERM"
      MHDECOD:
        source: "IT.NCT00789880.MH.MHDECOD"
      MHCAT:
        source: "IT.NCT00789880.MH.MHCAT"
      MHPRESP:
        literal: "Y"
      MHOCCUR:
        literal: "Y"
      MHDTC:
        source: "IT.NCT00789880.MH.MHDTC"
