RP:
  type: FINDINGS
  definitions:
    STUDYID:
      source: "StudyOID"
    DOMAIN:
      literal: "RP"
    USUBJID:
      source: "SubjectKey"
    RPSEQ:
      group: ["USUBJID"]
    EPOCH:
      literal: "TREATMENT"
    RPDY:
      function_: "calculate_study_day"
      args: ["RPDTC", "_DM_REF.RFSTDTC"]

  columns:
    - name: PGRES
      formoid: ["FO.NCT00789880.PG"]
      itemoid: ["IT.NCT00789880.PG.PGRES"]
      RPTESTCD: {literal: "PREGIND"}
      RPTEST: {literal: "Pregnancy Test Indicator"}
      RPCAT: {literal: "PREGNANCY"}
      RPORRES: {source: "IT.NCT00789880.PG.PGRES"}
      RPSTRESC: {source: "IT.NCT00789880.PG.PGRES"}
      RPDTC: {source: "IT.NCT00789880.PG.PGDTC"}
