RS:
  - formoid: ["FO.NCT00789880.SK"]
    keys: ["StudyOID", "SubjectKey", "StudyEventOID", "ItemGroupRepeatKey"]
    columns:
      STUDYID:
        source: "StudyOID"
      DOMAIN:
        literal: "RS"
      USUBJID:
        source: "SubjectKey"
      RSSEQ:
        group: ["USUBJID"]
      RSTESTCD:
        literal: "PASI"
      RSTEST:
        literal: "Psoriasis Area and Severity Index"
      RSCAT:
        literal: "DISEASE SEVERITY"
      RSORRES:
        source: "IT.NCT00789880.SK.PASI"
      RSORRESU:
        literal: ""
      RSSTRESC:
        source: "IT.NCT00789880.SK.PASI"
      RSSTRESN:
        source: "IT.NCT00789880.SK.PASI"
      RSDTC:
        source: "IT.NCT00789880.SK.SKDTC"
      RSDY:
        function_: "calculate_study_day"
        args: ["RSDTC", "_DM_REF.RFSTDTC"]
