SUPPDM:
  - formoid: ["FO.NCT00789880.DM"]
    keys: ["StudyOID", "SubjectKey"]
    columns:
      STUDYID:
        source: "StudyOID"
      RDOMAIN:
        literal: "DM"
      USUBJID:
        source: "SubjectKey"
      IDVAR:
        literal: ""
      IDVARVAL:
        literal: ""
      QNAM:
        literal: "DXGROUP"
      QLABEL:
        literal: "Diagnostic Group"
      QVAL:
        source: "IT.NCT00789880.DM.DIAGGRP"
      QORIG:
        literal: "CRF"
      QEVAL:
        literal: ""
  - formoid: ["FO.NCT00789880.SK"]
    keys: ["StudyOID", "SubjectKey"]
    columns:
      STUDYID:
        source: "StudyOID"
      RDOMAIN:
        literal: "DM"
      USUBJID:
        source: "SubjectKey"
      IDVAR:
        literal: ""
      IDVARVAL:
        literal: ""
      QNAM:
        literal: "FITZSKIN"
      QLABEL:
        literal: "Fitzpatrick Skin Type"
      QVAL:
        source: "IT.NCT00789880.SK.FITZPATRICK"
      QORIG:
        literal: "CRF"
      QEVAL:
        literal: ""
