STUDYID,DOMAIN,USUBJID,FASEQ,FATESTCD,FATEST,FACAT,FASCAT,FAOBJ,FAORRES,FASTRESC,VSSTRESN
PROJ1,FA,SUBJ1,1,OCCUR,Occurrence Indicator,REACTOGENICITY,SYSTEMIC,FEVER,Y,Y,38.5
PROJ1,FA,SUBJ1,2,OCCUR,Occurrence Indicator,REACTOGENICITY,SYSTEMIC,FEVER,N,N,37.5
PROJ1,FA,SUBJ1,3,OCCUR,Occurrence Indicator,REACTOGENICITY,SYSTEMIC,FEVER,,,
