DOMAIN,STUDYID,USUBJID,AESEQ,AETERM,AESER,AESDTH,AESLIFE,AESHOSP,AESDISAB,AESCONG,AESMIE
AE,CATH,CATH-701-001,1,APPENDICITIS,Y,N,N,Y,N,N,N
AE,CATH,CATH-701-002,1,ANAPHYLACTIC REACTION,Y,N,Y,Y,N,N,N
AE,CATH,CATH-701-003,1,HEADACHE,N,N,N,N,N,N,N
AE,CATH,CATH-701-004,1,FATIGUE,N,,,,,,
