schema_version: "1.0"
domain: ADAE
keys: [STUDYID, USUBJID, AESEQ]
input:
  AE:
    path: input/ae.csv
    types: {AESEQ: int, AESTDTC: date}

output:
  path: adae.csv
  columns: [STUDYID, USUBJID, AESEQ, AEDECOD, ASTDT, AFTIDXFL]

intermediates:
  # Each subject's index event: the first event carrying the designated
  # index term (in this fixture, COVID-19) -- earliest start, then
  # lowest AESEQ.
  - id: FIRSTIDX
    dataset: AE
    key: [STUDYID, USUBJID]
    filter: "AE.AEDECOD = 'COVID-19'"
    order_by: [AE.AESTDTC, AE.AESEQ]
    keep: first
    no_match: null

columns:
  - name: STUDYID
    type: str
    label: Study Identifier
    derivation: AE.STUDYID

  - name: USUBJID
    type: str
    label: Unique Subject Identifier
    derivation: AE.USUBJID

  - name: AESEQ
    type: int
    label: Sequence Number
    derivation: AE.AESEQ

  - name: AEDECOD
    type: str
    label: Dictionary-Derived Term
    derivation: AE.AEDECOD

  - name: ASTDT
    type: date
    label: Analysis Start Date
    derivation: AE.AESTDTC

  # Strictly after the subject's index event in (start date, AESEQ) order.
  # A missing start compares as unknown, so the flag stays empty.
  - name: AFTIDXFL
    type: str
    label: After Index Event Flag
    derivation:
      flag: >-
            ASTDT > FIRSTIDX.AESTDTC OR
            (ASTDT = FIRSTIDX.AESTDTC AND AESEQ > FIRSTIDX.AESEQ)

verifications:
  - unique:
      columns: [STUDYID, USUBJID, AESEQ]
  - row_count:
      min: 11
      max: 11
