STUDYID,USUBJID,AESEQ,AETERM,AEOUT,AEENDTC
CATH,S1,1,HEADACHE,RECOVERED,2025-01-10
CATH,S2,1,CARDIAC ARREST,FATAL,2025-02-15
CATH,S3,1,RESPIRATORY FAILURE,FATAL,2025-03-22
CATH,S4,1,NAUSEA,RECOVERED,2025-04-10
CATH,S5,1,MYOCARDIAL INFARCTION,FATAL,2025-05-25
CATH,S2,2,CARDIAC ARREST,FATAL,
