STUDYID,USUBJID,DSSEQ,DSDECOD,DSCAT,DSSTDTC
CATH,S1,1,DEATH,DISPOSITION EVENT,2025-01-15
CATH,S2,1,COMPLETED,DISPOSITION EVENT,2025-02-20
CATH,S3,1,DEATH,DISPOSITION EVENT,2025-03-20
CATH,S4,1,COMPLETED,DISPOSITION EVENT,2025-04-20
CATH,S5,1,DEATH,DISPOSITION EVENT,2025-05-25
