STUDYID,USUBJID,VISIT,VSTESTCD,VSTEST,VSSTRESN,VSSTRESU
YAMAA-01,YAMAA-01-101,BASELINE,HEIGHT,Height (cm),172,cm
YAMAA-01,YAMAA-01-101,BASELINE,WEIGHT,Weight (kg),70,kg
YAMAA-01,YAMAA-01-101,WEEK 4,WEIGHT,Weight (kg),71,kg
YAMAA-01,YAMAA-01-101,BASELINE,TEMP,Temperature (C),36.6,C
YAMAA-01,YAMAA-01-102,BASELINE,HEIGHT,Height (cm),165,cm
YAMAA-01,YAMAA-01-102,BASELINE,WEIGHT,Weight (kg),80,kg
YAMAA-01,YAMAA-01-102,WEEK 4,WEIGHT,Weight (kg),,kg
