DOMAIN,STUDYID,USUBJID,TRSEQ,TRLNKID,TRTESTCD,TRTEST,TRORRES,TRORRESU,TRSTRESC,TRSTRESN,TRSTRESU,TRSTAT,TRMETHOD,TREVAL,VISITNUM,TRDTC
TR,YAMAA-01,YAMAA-01-001,1,T01,DIAMETER,Diameter,32,mm,32,32,mm,,CT SCAN,INVESTIGATOR,1,2026-01-05
TR,YAMAA-01,YAMAA-01-001,2,T01,DIAMETER,Diameter,2.8,cm,28,28,mm,,CT SCAN,INVESTIGATOR,2,2026-03-02
TR,YAMAA-01,YAMAA-01-001,3,T01,DIAMETER,Diameter,25,mm,25,25,mm,,CT SCAN,INVESTIGATOR,3,2026-04-27
TR,YAMAA-01,YAMAA-01-001,4,T02,DIAMETER,Diameter,18,mm,18,18,mm,,CT SCAN,INVESTIGATOR,1,2026-01-05
TR,YAMAA-01,YAMAA-01-001,5,T02,DIAMETER,Diameter,,,,,,NOT DONE,CT SCAN,INVESTIGATOR,2,
TR,YAMAA-01,YAMAA-01-001,6,T02,DIAMETER,Diameter,TOO SMALL TO MEASURE,mm,5,5,mm,,CT SCAN,INVESTIGATOR,3,2026-04-27
TR,YAMAA-01,YAMAA-01-001,7,NT01,TUMSTATE,Tumor State,PRESENT,,PRESENT,,,,CT SCAN,INVESTIGATOR,1,2026-01-05
TR,YAMAA-01,YAMAA-01-001,8,NT01,TUMSTATE,Tumor State,PRESENT,,PRESENT,,,,CT SCAN,INVESTIGATOR,2,2026-03-02
TR,YAMAA-01,YAMAA-01-001,9,NT01,TUMSTATE,Tumor State,ABSENT,,ABSENT,,,,CT SCAN,INVESTIGATOR,3,2026-04-27
TR,YAMAA-01,YAMAA-01-001,10,NEW01,TUMSTATE,Tumor State,PRESENT,,PRESENT,,,,CT SCAN,INVESTIGATOR,3,2026-04-27
