STUDYID,USUBJID,AESEQ,AEDECOD,AEOUT,ASTDT
KN189,KN189-101,1,HEART ATTACK,FATAL,2024-02-15
KN189,KN189-101,2,NAUSEA,RECOVERED,2024-01-20
KN189,KN189-102,1,HEART FAILURE,FATAL,2024-03-01
KN189,KN189-103,1,HEADACHE,RECOVERING,2024-02-10
KN189,KN189-104,1,DIZZINESS,RECOVERED,2024-02-12
