DOMAIN,STUDYID,USUBJID,VSSEQ,VISIT,VSTPT,VSTPTNUM,VSELTM,VSTESTCD,VSORRES,VSORRESU,VSSTRESN,VSSTRESU,VSDTC,VSDY
VS,YAMAA-01,YAMAA-01-001,1,DAY 1,PRE-DOSE,1,-PT15M,PULSE,72,beats/min,72,beats/min,2025-01-08T08:45:00,1
VS,YAMAA-01,YAMAA-01-001,2,DAY 1,PRE-DOSE,1,-PT15M,SYSBP,118,mmHg,118,mmHg,2025-01-08T08:45:00,1
VS,YAMAA-01,YAMAA-01-001,3,DAY 1,PRE-DOSE,1,-PT15M,DIABP,76,mmHg,76,mmHg,2025-01-08T08:45:00,1
VS,YAMAA-01,YAMAA-01-001,4,DAY 1,30 MIN POST-DOSE,2,PT30M,PULSE,74,beats/min,74,beats/min,2025-01-08T09:31:00,1
VS,YAMAA-01,YAMAA-01-001,5,DAY 1,30 MIN POST-DOSE,2,PT30M,SYSBP,120,mmHg,120,mmHg,2025-01-08T09:31:00,1
VS,YAMAA-01,YAMAA-01-001,6,DAY 1,30 MIN POST-DOSE,2,PT30M,DIABP,78,mmHg,78,mmHg,2025-01-08T09:31:00,1
VS,YAMAA-01,YAMAA-01-001,7,DAY 1,1 H POST-DOSE,3,PT1H,PULSE,70,beats/min,70,beats/min,2025-01-08T10:02:00,1
VS,YAMAA-01,YAMAA-01-001,8,DAY 1,1 H POST-DOSE,3,PT1H,SYSBP,116,mmHg,116,mmHg,2025-01-08T10:02:00,1
VS,YAMAA-01,YAMAA-01-001,9,DAY 1,1 H POST-DOSE,3,PT1H,DIABP,74,mmHg,74,mmHg,2025-01-08T10:02:00,1
VS,YAMAA-01,YAMAA-01-001,10,DAY 1,4 H POST-DOSE,4,PT4H,PULSE,68,beats/min,68,beats/min,2025-01-08T13:05:00,1
VS,YAMAA-01,YAMAA-01-001,11,DAY 1,4 H POST-DOSE,4,PT4H,SYSBP,114,mmHg,114,mmHg,2025-01-08T13:05:00,1
VS,YAMAA-01,YAMAA-01-001,12,DAY 1,4 H POST-DOSE,4,PT4H,DIABP,72,mmHg,72,mmHg,2025-01-08T13:05:00,1
VS,YAMAA-01,YAMAA-01-002,1,DAY 1,PRE-DOSE,1,-PT15M,PULSE,80,beats/min,80,beats/min,2025-01-15T08:44:00,1
VS,YAMAA-01,YAMAA-01-002,2,DAY 1,PRE-DOSE,1,-PT15M,SYSBP,124,mmHg,124,mmHg,2025-01-15T08:44:00,1
VS,YAMAA-01,YAMAA-01-002,3,DAY 1,PRE-DOSE,1,-PT15M,DIABP,82,mmHg,82,mmHg,2025-01-15T08:44:00,1
VS,YAMAA-01,YAMAA-01-002,4,DAY 1,30 MIN POST-DOSE,2,PT30M,PULSE,88,beats/min,88,beats/min,2025-01-15T09:52:00,1
VS,YAMAA-01,YAMAA-01-002,5,DAY 1,30 MIN POST-DOSE,2,PT30M,SYSBP,128,mmHg,128,mmHg,2025-01-15T09:52:00,1
VS,YAMAA-01,YAMAA-01-002,6,DAY 1,30 MIN POST-DOSE,2,PT30M,DIABP,84,mmHg,84,mmHg,2025-01-15T09:52:00,1
VS,YAMAA-01,YAMAA-01-002,7,DAY 1,1 H POST-DOSE,3,PT1H,PULSE,78,beats/min,78,beats/min,2025-01-15T10:03:00,1
VS,YAMAA-01,YAMAA-01-002,8,DAY 1,1 H POST-DOSE,3,PT1H,SYSBP,122,mmHg,122,mmHg,2025-01-15T10:03:00,1
VS,YAMAA-01,YAMAA-01-002,9,DAY 1,1 H POST-DOSE,3,PT1H,DIABP,80,mmHg,80,mmHg,2025-01-15T10:03:00,1
VS,YAMAA-01,YAMAA-01-002,10,DAY 1,4 H POST-DOSE,4,PT4H,PULSE,76,beats/min,76,beats/min,2025-01-15T13:01:00,1
VS,YAMAA-01,YAMAA-01-002,11,DAY 1,4 H POST-DOSE,4,PT4H,SYSBP,120,mmHg,120,mmHg,2025-01-15T13:01:00,1
VS,YAMAA-01,YAMAA-01-002,12,DAY 1,4 H POST-DOSE,4,PT4H,DIABP,78,mmHg,78,mmHg,2025-01-15T13:01:00,1
