schema_version: "1.0"
domain: ADEX
input:
  TRT: input/subject_treatment.csv
  EX: {path: input/ex.csv, types: {EXDOSE: float}}
base: TRT
keys: [STUDYID, USUBJID, EXTRT]

output:
  path: adex.csv
  columns: [STUDYID, USUBJID, EXTRT, DOSECUM, NDOSREC, NDOSVAL]

columns:
  - name: STUDYID
    type: str
    label: Study Identifier
    derivation:
      source: TRT.STUDYID

  - name: USUBJID
    type: str
    label: Unique Subject Identifier
    derivation:
      source: TRT.USUBJID

  - name: EXTRT
    type: str
    label: Name of Treatment
    derivation:
      source: TRT.EXTRT

  - name: DOSECUM
    type: float
    label: Cumulative Dose
    derivation:
      aggregate: "SUM(EX.EXDOSE)"

  - name: NDOSREC
    type: int
    label: Number of Dose Records
    derivation:
      aggregate: "COUNT(EX.EXSEQ)"

  - name: NDOSVAL
    type: int
    label: Number of Nonmissing Doses
    derivation:
      aggregate: "COUNT(EX.EXDOSE)"

verifications:
  - row_count:
      min: 3
      max: 3
  - implies:
      id: recorded-dose-implies-a-record
      when: "NDOSVAL > 0"
      then: "NDOSREC >= NDOSVAL"
