STUDYID,USUBJID,PARAMCD,PARAM,STARTDT,ADT,AVAL,CNSR,EVNTDESC,CNSDTDSC,SRCDOM,SRCVAR,SRCSEQ
YAMAA-01,YAMAA-01-101,DOR,Duration of Response,2025-02-17,2025-05-19,92,0,DISEASE PROGRESSION,,ADRS,ADT,3
YAMAA-01,YAMAA-01-102,DOR,Duration of Response,2025-01-20,2025-04-14,85,1,CENSORED,START OF NEW ANTI-CANCER THERAPY,ADSL,NACTDT,
YAMAA-01,YAMAA-01-103,DOR,Duration of Response,2025-02-03,2025-03-10,36,1,CENSORED,LAST TUMOUR ASSESSMENT,ADRS,ADT,2
YAMAA-01,YAMAA-01-104,DOR,Duration of Response,2025-03-03,2025-06-16,106,0,DEATH,,DS,DSSTDTC,1
YAMAA-01,YAMAA-01-105,DOR,Duration of Response,2025-03-17,2025-05-05,50,0,DISEASE PROGRESSION,,ADRS,ADT,2
YAMAA-01,YAMAA-01-107,DOR,Duration of Response,2025-04-01,2025-06-10,71,0,DISEASE PROGRESSION,,ADRS,ADT,2
YAMAA-01,YAMAA-01-108,DOR,Duration of Response,2025-01-06,2025-03-15,69,0,DEATH,,DS,DSSTDTC,1
YAMAA-01,YAMAA-01-109,DOR,Duration of Response,2025-02-04,2025-06-10,127,0,DISEASE PROGRESSION,,ADRS,ADT,2
YAMAA-01,YAMAA-01-110,DOR,Duration of Response,2025-02-10,2025-04-01,51,1,CENSORED,LAST TUMOUR ASSESSMENT,ADRS,ADT,2
YAMAA-01,YAMAA-01-111,DOR,Duration of Response,2025-03-01,2025-03-20,20,1,CENSORED,START OF NEW ANTI-CANCER THERAPY,ADSL,NACTDT,
YAMAA-01,YAMAA-01-112,DOR,Duration of Response,2025-05-01,2025-06-15,46,1,CENSORED,LAST TUMOUR ASSESSMENT,ADRS,ADT,3
