STUDYID,RDOMAIN,USUBJID,IDVAR,IDVARVAL,QNAM,QLABEL,QVAL,QORIG,QEVAL
STUDY01,DM,002,USUBJID,002,RACE1,Race 1,ASIAN,CRF,
STUDY01,DM,002,USUBJID,002,RACE2,Race 2,BLACK OR AFRICAN AMERICAN,CRF,
STUDY01,DM,004,USUBJID,004,RACE1,Race 1,AMERICAN INDIAN OR ALASKA NATIVE,CRF,
STUDY01,DM,004,USUBJID,004,RACE2,Race 2,WHITE,CRF,
