STUDYID,USUBJID,VSSEQ,VSTESTCD,VSTEST,VSSTRESN,VISIT
YAMAA-01,YAMAA-01-101,1,HEIGHT,Height (cm),147,SCREENING
YAMAA-01,YAMAA-01-101,2,WEIGHT,Weight (kg),54,SCREENING
YAMAA-01,YAMAA-01-101,3,WEIGHT,Weight (kg),54.4,BASELINE
YAMAA-01,YAMAA-01-101,4,WEIGHT,Weight (kg),53.1,WEEK 2
YAMAA-01,YAMAA-01-101,5,WEIGHT,Weight (kg),,WEEK 4
YAMAA-01,YAMAA-01-102,1,HEIGHT,Height (cm),163,SCREENING
YAMAA-01,YAMAA-01-102,2,WEIGHT,Weight (kg),78.5,SCREENING
YAMAA-01,YAMAA-01-102,3,WEIGHT,Weight (kg),80.3,BASELINE
YAMAA-01,YAMAA-01-102,4,WEIGHT,Weight (kg),80.7,WEEK 2
YAMAA-01,YAMAA-01-103,1,WEIGHT,Weight (kg),68,SCREENING
YAMAA-01,YAMAA-01-103,2,WEIGHT,Weight (kg),68.5,BASELINE
YAMAA-01,YAMAA-01-104,1,HEIGHT,Height (cm),0,SCREENING
YAMAA-01,YAMAA-01-104,2,WEIGHT,Weight (kg),70,SCREENING
YAMAA-01,YAMAA-01-104,3,WEIGHT,Weight (kg),71.2,BASELINE
