STUDYID,USUBJID,VISITN,VISIT,VSDTC,TRTSDT,VSSTRESN,VSEVAL,VSSEQ,SEVRANKC,SEVRANKD,PREVRES,NEXTRES,EVALPREV,LASTRES,CARRYRES,BLFL
YAMAA-01,01,1,VISIT 1,2025-01-02,2025-01-12,120,Y,1,3,2,,118,,,120,
YAMAA-01,01,2,VISIT 2,2025-01-09,2025-01-12,118,Y,2,4,3,120,,120,120,118,Y
YAMAA-01,01,3,VISIT 3,2025-01-16,2025-01-12,,N,,5,4,118,122,,118,118,
YAMAA-01,01,4,VISIT 4,2025-01-23,2025-01-12,122,Y,3,1,1,,122,118,118,122,
YAMAA-01,01,5,VISIT 5,2025-01-30,2025-01-12,122,Y,4,1,1,122,,122,122,122,
YAMAA-01,02,1,VISIT 1,2025-02-01,2025-02-10,98,Y,1,2,2,,,,,98,
YAMAA-01,02,2,VISIT 2,2025-02-08,2025-02-10,,Y,2,3,3,98,,98,98,98,Y
YAMAA-01,02,3,VISIT 3,2025-02-15,2025-02-10,,Y,3,3,3,,105,,98,98,
YAMAA-01,02,4,VISIT 4,2025-02-22,2025-02-10,105,Y,4,1,1,,,,98,105,
YAMAA-01,03,1,VISIT 1,2025-03-01,2025-03-20,130,Y,1,1,1,,130,,,130,
YAMAA-01,03,2,VISIT 2,2025-03-08,2025-03-20,130,Y,2,1,1,130,128,130,130,130,
YAMAA-01,03,3,VISIT 3,2025-03-15,2025-03-20,128,N,,3,2,130,,,130,128,Y
YAMAA-01,04,1,VISIT 1,2025-04-01,2025-03-15,115,Y,1,1,1,,,,,115,
