STUDYID,USUBJID,DSSEQ,DSSTDY,DSDECOD,DSVALUE
YAMAA-01,P01,1,10,COMPLETED,0.1
YAMAA-01,P01,2,3,EARLY TERMINATION,0.30000000000000004
YAMAA-01,P02,1,,WITHDRAWN,0.3
YAMAA-01,P02,2,7,COMPLETED,0.4
YAMAA-01,P03,1,,LOST TO FOLLOW-UP,0.5
