STUDYID,USUBJID,PARAMCD,PARAM,STARTDT,ADT,AVAL,CNSR,EVNTDESC,SRCDOM,SRCVAR,SRCSEQ
PILOT7,P7-301,PFS,Progression-Free Survival,2025-01-01,2025-02-19,50,0,DISEASE PROGRESSION,RS,RSDTC,2
PILOT7,P7-302,PFS,Progression-Free Survival,2025-01-01,2025-01-30,30,0,DEATH,DS,DSDTC,1
PILOT7,P7-303,PFS,Progression-Free Survival,2025-01-01,2025-02-12,43,1,CENSORED,RS,RSDTC,2
PILOT7,P7-304,PFS,Progression-Free Survival,2025-01-01,2025-01-22,22,1,CENSORED,RS,RSDTC,2
PILOT7,P7-305,PFS,Progression-Free Survival,2025-01-01,2025-01-01,1,1,CENSORED,RS,RSDTC,1
