STUDYID,USUBJID,ECSEQ,VISIT,FORM,ECOCCUR,ECTRT,TABLETS,STRENGTH_MG,DOSE_MGKG,AUC_TARGET,KIT,ECSTDTC,ECENDTC
STUDY01,001,1,1,TABLET,Y,FINASTERIDE,2,5,,,,2025-01-02,2025-01-02
STUDY01,001,2,1,TABLET,N,FINASTERIDE,2,5,,,,2025-01-09,2025-01-09
STUDY01,001,3,2,INFUSION,Y,TRASTUZUMAB,,,6,,,2025-01-23,2025-01-23
STUDY01,002,1,1,KITDOSE,Y,,,,,,KIT-104,2025-02-05,2025-02-05
STUDY01,002,2,2,INFUSION,Y,TRASTUZUMAB,,,6,,,2025-02-26,2025-02-26
STUDY01,003,1,1,KITDOSE,Y,,,,,,KIT-207,2025-03-04,2025-03-04
STUDY01,003,2,2,AUCDOSE,Y,CARBOPLATIN,,,,5,,2025-03-25,2025-03-25
