STUDYID,USUBJID,VISIT,LBSEQ,LBTESTCD,LBTEST,LBORRES,LBORRESU,LBDTC
STUDY01,001,1,1,WEIGHT,Weight,70,kg,2025-01-02
STUDY01,001,1,2,HEIGHT,Height,170,cm,2025-01-02
STUDY01,001,2,3,WEIGHT,Weight,72,kg,2025-01-23
STUDY01,002,1,4,WEIGHT,Weight,80,kg,2025-02-05
STUDY01,002,2,5,WEIGHT,Weight,80,kg,2025-02-26
STUDY01,003,1,6,WEIGHT,Weight,65,kg,2025-03-04
STUDY01,003,2,7,WEIGHT,Weight,65,kg,2025-03-25
