STUDYID,USUBJID,EXTRT,EXDOSE,EXDOSU,EXSTDTC,EXENDTC,EXADJ
PILOT7,P7-001,Pembrolizumab,200,mg,2025-01-02,2025-01-02,
PILOT7,P7-001,Pemetrexed,500,mg/m2,2025-01-02,2025-01-02,
PILOT7,P7-001,Carboplatin,5,AUC,2025-01-02,2025-01-02,
PILOT7,P7-001,Pembrolizumab,200,mg,2025-01-23,2025-01-23,DOSE INTERRUPTED
PILOT7,P7-001,Pemetrexed,500,mg/m2,2025-01-23,2025-01-23,
PILOT7,P7-001,Carboplatin,5,AUC,2025-01-23,2025-01-23,
PILOT7,P7-002,Saline placebo,0,mg,2025-01-02,2025-01-02,
PILOT7,P7-002,Pemetrexed,500,mg/m2,2025-01-02,2025-01-02,
PILOT7,P7-002,Cisplatin,75,mg/m2,2025-01-02,2025-01-02,
