STUDYID,USUBJID,VISIT,QSSEQ,QSCAT,QSTESTCD,QSTEST,QSORRES
PILOT7,P7-101,BASELINE,1,PHYSICAL FUNCTIONING SCALE,PF01,Trouble with strenuous activity,2
PILOT7,P7-101,BASELINE,2,PHYSICAL FUNCTIONING SCALE,PF02,Trouble with a long walk,1
PILOT7,P7-101,BASELINE,3,PHYSICAL FUNCTIONING SCALE,PF03,Trouble with a short walk,2
PILOT7,P7-101,BASELINE,4,PHYSICAL FUNCTIONING SCALE,PF04,Needs to stay in bed or a chair,1
