STUDYID,USUBJID,TUSEQ,TUTESTCD,VISIT,TUSTRESC
YAMAA-01,YAMAA-01-101,1,TUMIDENT,SCREENING,TARGET
YAMAA-01,YAMAA-01-101,2,TUMIDENT,SCREENING,TARGET
YAMAA-01,YAMAA-01-101,3,TUMIDENT,WEEK 1,TARGET
YAMAA-01,YAMAA-01-101,4,TUMIDENT,WEEK 9,NON-TARGET
YAMAA-01,YAMAA-01-102,1,TUMIDENT,SCREENING,NON-TARGET
YAMAA-01,YAMAA-01-102,2,TUMIDENT,SCREENING,NON-TARGET
YAMAA-01,YAMAA-01-104,1,TUMIDENT,WEEK 1,TARGET
YAMAA-01,YAMAA-01-104,2,TUMIDENT,WEEK 5,TARGET
YAMAA-01,YAMAA-01-105,1,TUMIDENT,SCREENING,BENIGN ABNORMALITY
YAMAA-01,YAMAA-01-106,1,TUMIDENT,SCREENING,
YAMAA-01,YAMAA-01-199,1,TUMIDENT,SCREENING,TARGET
