STUDYID,USUBJID,AVISIT,AVISITN,ADT,PARAMCD,PARAM,AVAL,NMEAS,NTARGET,ANL01FL,NADIR
PILOT7,P7-921,BASELINE,0,2025-01-05,SDIAM,Sum of Target Lesion Diameters (mm),80,3,3,Y,80
PILOT7,P7-921,WEEK 8,8,2025-03-02,SDIAM,Sum of Target Lesion Diameters (mm),50,2,3,,80
PILOT7,P7-921,WEEK 16,16,2025-04-27,SDIAM,Sum of Target Lesion Diameters (mm),,,3,,80
PILOT7,P7-922,BASELINE,0,2025-01-12,SDIAM,Sum of Target Lesion Diameters (mm),40,2,2,Y,40
PILOT7,P7-922,WEEK 8,8,2025-03-09,SDIAM,Sum of Target Lesion Diameters (mm),22,2,2,Y,22
PILOT7,P7-923,BASELINE,0,2025-01-19,SDIAM,Sum of Target Lesion Diameters (mm),50,1,1,Y,50
PILOT7,P7-923,WEEK 8,8,,SDIAM,Sum of Target Lesion Diameters (mm),45,1,1,Y,
