STUDYID,USUBJID,AESEQ,AEBODSYS,AEDECOD,ASTDT,TRTEMFL
CATH-01,CATH-01-001,1,NERVOUS SYSTEM DISORDERS,HEADACHE,2024-01-05,
CATH-01,CATH-01-001,2,NERVOUS SYSTEM DISORDERS,HEADACHE,2024-01-10,Y
CATH-01,CATH-01-001,3,GASTROINTESTINAL DISORDERS,NAUSEA,2024-01-10,Y
CATH-01,CATH-01-001,4,NERVOUS SYSTEM DISORDERS,HEADACHE,2024-01-12,Y
CATH-01,CATH-01-001,5,SKIN AND SUBCUTANEOUS TISSUE DISORDERS,RASH,2024-01-21,
CATH-01,CATH-01-002,1,NERVOUS SYSTEM DISORDERS,HEADACHE,2024-02-01,Y
CATH-01,CATH-01-002,2,NERVOUS SYSTEM DISORDERS,HEADACHE,2024-02-01,Y
CATH-01,CATH-01-003,1,NERVOUS SYSTEM DISORDERS,DIZZINESS,2024-03-04,Y
CATH-01,CATH-01-004,1,GASTROINTESTINAL DISORDERS,DIARRHOEA,2024-04-02,
CATH-01,CATH-01-004,2,NERVOUS SYSTEM DISORDERS,HEADACHE,2024-04-09,
