DOMAIN,STUDYID,USUBJID,EXSEQ,EXTRT,EXDOSE,EXDOSU,EXDOSFRQ,EXSTDTC,EXENDTC,EXADJ
EX,DOSEINT,DI-001,1,Study Drug,50,mg,QD,2025-01-02,2025-01-04,
EX,DOSEINT,DI-002,1,Study Drug,100,mg,QD,2025-02-01,2025-02-02,
EX,DOSEINT,DI-002,2,Study Drug,75,mg,QD,2025-02-03,2025-02-04,DOSE REDUCED
EX,DOSEINT,DI-003,1,Study Drug,200,mg,QD,2025-03-01,2025-03-02,
EX,DOSEINT,DI-003,2,Study Drug,0,mg,QD,2025-03-03,2025-03-04,DOSE INTERRUPTED
EX,DOSEINT,DI-003,3,Study Drug,150,mg,QD,2025-03-05,2025-03-06,DOSE REDUCED
