schema_version: "1.0"
domain: LB
keys: [STUDYID, USUBJID, LBSEQ]
input:
  ODM: input/odm.csv

output:
  path: lb.csv
  columns: [DOMAIN, STUDYID, USUBJID, LBSEQ, LBTESTCD, LBTEST, LBORRES, LBORRESU, LBSTRESN, LBSTRESU, LBDTC]

columns:
  - name: DOMAIN
    type: str
    label: Domain Abbreviation
    derivation:
      literal: LB

  - name: STUDYID
    type: str
    label: Study Identifier
    derivation: ODM.StudyOID

  - name: USUBJID
    type: str
    label: Unique Subject Identifier
    derivation: ODM.SubjectKey

  - name: LBTESTCD
    type: str
    label: Lab Test or Examination Short Name

  - name: LBTEST
    type: str
    label: Lab Test or Examination Name

  - name: LBORRES
    type: str
    label: Result or Finding in Original Units

  - name: LBORRESU
    type: str
    label: Original Units

  - name: LBSTRESN
    type: float
    label: Numeric Result/Finding in Standard Units

  - name: LBSTRESU
    type: str
    label: Standard Units

  - name: LBDTC
    type: date
    label: Date/Time of Specimen Collection
    derivation: ODM.IT.LB.LBDTC

  - name: LBSEQ
    type: int
    label: Sequence Number
    derivation:
      row_number:
        window:
          group_by: [STUDYID, USUBJID]
          order_by: [LBDTC, LBTESTCD]

rows:
  - id: calcium
    filter: "ODM.ItemOID = 'IT.LB.CALCIUM' AND ODM.Value IS NOT NULL"
    derivations:
      LBTESTCD:
        literal: CA
      LBTEST:
        literal: Calcium
      LBORRES:
        source: ODM.Value
      LBORRESU:
        literal: mg/dL
      LBSTRESN:
        value:
          source: ODM.Value
        conversion_failure: null
      LBSTRESU:
        literal: mg/dL

  - id: creatinine
    filter: "ODM.ItemOID = 'IT.LB.CREAT' AND ODM.Value IS NOT NULL"
    derivations:
      LBTESTCD:
        literal: CREAT
      LBTEST:
        literal: Creatinine
      LBORRES:
        source: ODM.Value
      LBORRESU:
        literal: mg/dL
      LBSTRESN:
        value:
          source: ODM.Value
        conversion_failure: null
      LBSTRESU:
        literal: mg/dL
