schema_version: "1.0"
domain: ADLB
keys: [STUDYID, USUBJID, PARAMCD, ASEQ]
input:
  ADLBPRE:
    path: input/adlb_pre.csv
    types: {ASEQ: int, AVAL: float, ANRLO: float, ANRHI: float}

output:
  path: adlb.csv
  columns: [STUDYID, USUBJID, PARAMCD, PARAM, ASEQ, AVISIT, AVAL, ANRLO, ANRHI, ANRIND, ABLFL, BASE, BNRIND, SHIFT1, R2BASE, CRIT1, CRIT1FL]

columns:
  - name: STUDYID
    type: str
    label: Study Identifier
    derivation:
      source: ADLBPRE.STUDYID

  - name: USUBJID
    type: str
    label: Unique Subject Identifier
    derivation:
      source: ADLBPRE.USUBJID

  - name: PARAMCD
    type: str
    label: Parameter Code
    derivation:
      source: ADLBPRE.PARAMCD

  - name: PARAM
    type: str
    label: Parameter
    derivation:
      source: ADLBPRE.PARAM

  - name: ASEQ
    type: int
    label: Analysis Sequence Number
    derivation:
      source: ADLBPRE.ASEQ

  - name: AVISIT
    type: str
    label: Analysis Visit
    derivation:
      source: ADLBPRE.AVISIT

  - name: AVAL
    type: float
    label: Analysis Value
    derivation:
      source: ADLBPRE.AVAL

  - name: ANRLO
    type: float
    label: Analysis Normal Range Lower Limit
    derivation:
      source: ADLBPRE.ANRLO

  - name: ANRHI
    type: float
    label: Analysis Normal Range Upper Limit
    derivation:
      source: ADLBPRE.ANRHI

  - name: ANRIND
    type: str
    label: Analysis Reference Range Indicator
    derivation:
      case:
        branches:
          - when: "AVAL IS NULL OR ANRLO IS NULL OR ANRHI IS NULL"
            then:
              literal: null
          - when: "AVAL < ANRLO"
            then:
              literal: LOW
          - when: "AVAL > ANRHI"
            then:
              literal: HIGH
        otherwise:
          literal: NORMAL
    verifications:
      allowed_values:
        values: [LOW, NORMAL, HIGH]

  - name: ABLFL
    type: str
    label: Baseline Record Flag
    derivation:
      source: ADLBPRE.ABLFL
    verifications:
      allowed_values:
        values: [Y]

  - name: BASE
    type: float
    label: Baseline Value
    derivation:
      baseline_value:
        group_by: [STUDYID, USUBJID, PARAMCD]
        value: AVAL
        flag: ABLFL

  - name: BNRIND
    type: str
    label: Baseline Reference Range Indicator
    derivation:
      baseline_value:
        group_by: [STUDYID, USUBJID, PARAMCD]
        value: ANRIND
        flag: ABLFL
    verifications:
      allowed_values:
        values: [LOW, NORMAL, HIGH]

  - name: SHIFT1
    type: str
    label: Shift 1
    derivation:
      str_template:
        template: "{BNRIND} to {ANRIND}"
        missing: null

  - name: R2BASE
    type: float
    label: Ratio to Baseline
    derivation:
      compute:
        expr: "AVAL / NULLIF(BASE, 0)"

  - name: CRITLIM
    type: float
    label: Criterion Limit
    derivation:
      compute:
        expr: "3 * ANRHI"

  - name: CRIT1
    type: str
    label: Analysis Criterion 1
    derivation:
      case:
        branches:
          - when: "AVAL IS NOT NULL AND CRITLIM IS NOT NULL"
            then:
              literal: Result greater than 3 x ULN

  - name: CRIT1FL
    type: str
    label: Criterion 1 Evaluation Result Flag
    derivation:
      case:
        branches:
          - when: "AVAL IS NULL OR CRITLIM IS NULL"
            then:
              literal: null
          - when: "AVAL > CRITLIM"
            then:
              literal: Y
        otherwise:
          literal: N
    verifications:
      allowed_values:
        values: [Y, N]

verifications:
  - unique:
      columns: [STUDYID, USUBJID, PARAMCD, ASEQ]
  - row_count:
      min: 10
      max: 10
  - all_or_none:
      id: criterion-text-accompanies-its-flag
      columns: [CRIT1, CRIT1FL]
  - all_or_none:
      id: shift-needs-both-of-its-classifications
      columns: [ANRIND, SHIFT1]
  - implies:
      id: a-baseline-record-is-its-own-reference
      when: "ABLFL = 'Y' AND R2BASE IS NOT NULL"
      then: "R2BASE = 1"
  - implies:
      id: a-classification-rests-on-both-of-its-limits
      when: "ANRIND IS NOT NULL"
      then: "ANRLO IS NOT NULL AND ANRHI IS NOT NULL"
  - implies:
      id: criterion-is-met-only-above-its-limit
      when: "CRIT1FL = 'Y'"
      then: "AVAL > CRITLIM"
