STUDYID,RDOMAIN,USUBJID,IDVAR,IDVARVAL,RELTYPE,RELID
PILOT7,AE,P7-001,AESEQ,11,,P7-001-CM101-AE1
PILOT7,CM,P7-001,CMSEQ,101,,P7-001-CM101-AE1
PILOT7,AE,P7-001,AESEQ,12,,P7-001-CM101-AE2
PILOT7,CM,P7-001,CMSEQ,101,,P7-001-CM101-AE2
PILOT7,AE,P7-001,AESEQ,11,,P7-001-CM102-AE1
PILOT7,CM,P7-001,CMSEQ,102,,P7-001-CM102-AE1
PILOT7,AE,P7-002,AESEQ,21,,P7-002-CM201-AE1
PILOT7,CM,P7-002,CMSEQ,201,,P7-002-CM201-AE1
