schema_version: "1.0"
domain: ADRS
keys: [STUDYID, USUBJID, RSSEQ]
input:
  RS: input/rs.csv
  ADSL: {path: input/adsl.csv, types: {TRTSDT: date}}

base: RS
output:
  path: adrs.csv
  columns: [STUDYID, USUBJID, RSSEQ, PARAMCD, PARAM, RSDTC, ADT, ADY, AVALC, AVAL, ANL01FL]

columns:
  - name: STUDYID
    type: str
    label: Study Identifier
    derivation: RS.STUDYID

  - name: USUBJID
    type: str
    label: Unique Subject Identifier
    derivation: RS.USUBJID

  - name: RSSEQ
    type: int
    label: Sequence Number
    derivation: RS.RSSEQ

  - name: PARAMCD
    type: str
    label: Parameter Code
    derivation: {literal: OVR}

  - name: PARAM
    type: str
    label: Parameter
    derivation: {literal: Overall Response by Investigator}

  - name: RSDTC
    type: str
    label: Date/Time of Assessment
    derivation: RS.RSDTC

  # A year and month take the first of the month, a year alone 1 January.
  # No replacement is declared, so a blank or non-date RSDTC stops the run.
  - name: ADT
    type: date
    label: Analysis Date
    derivation:
      date_impute:
        source: RSDTC
        month: 1
        day: 1
    verifications:
      not_missing: {}

  - name: AVALC
    type: str
    label: Analysis Value (C)
    derivation: RS.RSSTRESC
    verifications:
      allowed_values:
        values: [CR, PR, SD, NON-CR/NON-PD, PD, NE]

  - name: AVAL
    type: int
    label: Analysis Value
    derivation:
      mapping:
        source: AVALC
        dict:
          CR: 1
          PR: 2
          SD: 3
          NON-CR/NON-PD: 4
          PD: 5
          NE: 6
    verifications:
      range:
        min: 1
        max: 6

  - name: TRTSDT
    type: date
    label: Date of First Exposure to Treatment
    derivation: ADSL.TRTSDT

  - name: ADY
    type: int
    label: Analysis Relative Day
    derivation:
      study_day:
        date: ADT
        reference: TRTSDT

  # One record per subject and date carries ANL01FL: the date's worst
  # response (largest AVAL), and among ties the lowest RSSEQ. Records below
  # the worst are not numbered.
  - name: WORSTAVAL
    type: int
    label: Worst Analysis Value
    derivation:
      aggregate:
        expr: "MAX(AVAL)"
        group_by: [STUDYID, USUBJID, ADT]

  - name: WORSTORD
    type: int
    label: Worst Response Order
    derivation:
      row_number:
        window:
          group_by: [STUDYID, USUBJID, ADT]
          order_by: [RSSEQ]
          filter: "AVAL = WORSTAVAL"

  - name: ANL01FL
    type: str
    label: Analysis Record Flag 01
    derivation:
      flag: "WORSTORD = 1"
    verifications:
      allowed_values:
        values: [Y]

filter: "RS.RSTESTCD = 'OVRLRESP' AND RS.RSEVAL = 'INVESTIGATOR'"

verifications:
  - unique:
      columns: [STUDYID, USUBJID, RSSEQ]
  - row_count:
      min: 16
      max: 16
  - implies:
      id: analysis-flag-marks-the-worst-response-of-its-date
      when: "ANL01FL = 'Y'"
      then: "AVAL = WORSTAVAL"
  - implies:
      id: assessment-is-not-before-treatment-start
      when: "ADT IS NOT NULL"
      then: "ADY >= 1"
