schema_version: "1.0"
domain: DM
keys: [STUDYID, USUBJID]
input:
  DM_RAW: input/dm_raw.csv
  DS: input/ds.csv
  AE: input/ae.csv
base: DM_RAW
intermediates:
  - id: DTHDS
    dataset: DS
    filter: "DS.DSDECOD = 'DEATH'"
    order_by: [DS.DSSTDTC]
    keep: last
  - id: DTHAE
    dataset: AE
    filter: "AE.AEOUT = 'FATAL'"
    order_by: [AE.AEENDTC]
    keep: last

output:
  path: dm.csv
  columns: [DOMAIN, STUDYID, USUBJID, DTHDTC, DTHFL]

columns:
  - name: DOMAIN
    type: str
    label: Domain Abbreviation
    derivation:
      literal: DM

  - name: STUDYID
    type: str
    label: Study Identifier
    derivation: DM_RAW.STUDYID

  - name: USUBJID
    type: str
    label: Unique Subject Identifier
    derivation: DM_RAW.USUBJID

  - name: DSDTHDT
    type: date
    label: Death Date from Disposition
    derivation: DTHDS.DSSTDTC

  - name: AEDTHDT
    type: date
    label: Death Date from Fatal Adverse Event
    derivation: DTHAE.AEENDTC

  - name: DTHDTC
    type: date
    label: Date/Time of Death
    derivation:
      first_available:
        sources: [DSDTHDT, AEDTHDT]

  - name: DTHFL
    type: str
    label: Subject Death Flag
    derivation:
      case:
        - when: "DSDTHDT IS NOT NULL OR AEDTHDT IS NOT NULL"
          then:
            literal: Y
    verifications:
      allowed_values:
        values: [Y]

verifications:
  - unique:
      columns: [STUDYID, USUBJID]
  - row_count:
      min: 5
      max: 5
  - implies:
      id: death-date-marks-flag
      when: "DTHDTC IS NOT NULL"
      then: "DTHFL = 'Y'"
  - implies:
      id: flag-needs-date
      when: "DTHFL = 'Y'"
      then: "DTHDTC IS NOT NULL"
