STUDYID,USUBJID,LBSEQ,LBTESTCD,LBSTRESN
KN189,KN189-101,1,NEUT,3.1
KN189,KN189-101,2,NEUT,2.8
KN189,KN189-101,3,NEUT,3.4
KN189,KN189-101,4,NEUT,
KN189,KN189-102,1,NEUT,4.0
KN189,KN189-102,2,NEUT,4.2
KN189,KN189-103,1,NEUT,
