STUDYID,DOMAIN,USUBJID,VSSEQ,VISIT,VSTESTCD,VSTEST,VSORRES,VSORRESU,VSSTRESN,VSSTRESC,VSSTRESU
CATH,VS,CATH-UCSD-0001,1,SCREENING,HEIGHT,Height,168,cm,168,168,cm
CATH,VS,CATH-UCSD-0001,2,SCREENING,WEIGHT,Weight,72.5,kg,72.5,72.5,kg
CATH,VS,CATH-UCSD-0002,1,SCREENING,WEIGHT,Weight,175,LB,79.37866475,79.37866475,kg
CATH,VS,CATH-UCSD-0001,3,SCREENING,TEMP,Temperature,36.8,C,36.8,36.8,C
CATH,VS,CATH-UCSD-0002,2,SCREENING,TEMP,Temperature,98.6,F,37,37,C
CATH,VS,CATH-UCSD-0002,3,WEEK 2,TEMP,Temperature,,F,,,
