DOMAIN,STUDYID,USUBJID,CMSEQ,CMTRT,CMDECOD,CMCLAS,CMCLASCD
CM,YAMAA-01,001-101,1,ADVIL,IBUPROFEN,Propionic acid derivatives,M01AE
CM,YAMAA-01,001-101,2,Asprin,ACETYLSALICYLIC ACID,Salicylic acid and derivatives,N02BA
CM,YAMAA-01,001-102,1,ASPIRIN,ACETYLSALICYLIC ACID,Platelet aggregation inhibitors excl. heparin,B01AC
CM,YAMAA-01,001-102,2,TURMERIC,,,
