STUDYID,USUBJID,AESEQ,AESPID,AETERM,AEREL
CATH-01,CATH-01-001,1,AE-001,Headache,RELATED
CATH-01,CATH-01-001,2,,HEADACHE,Possibly Related
CATH-01,CATH-01-001,3,BAD-ID,Nausea,
CATH-01,CATH-01-002,1,AE-104,Fatigue,NOT RELATED
CATH-01,CATH-01-002,2,,Dizziness,NOT RELATED
