DOMAIN,STUDYID,USUBJID,TUSEQ,TULNKID,TUTESTCD,TUTEST,TUORRES,TUSTRESC,TULOC,TULAT,TUMETHOD,TUEVAL,VISITNUM,VISIT,TUDTC
TU,YAMAA-01,YAMAA-01-001,1,T01,TUMIDENT,Tumor Identification,TARGET,TARGET,LIVER,RIGHT,CT SCAN,INVESTIGATOR,1,SCREENING,2026-01-05
TU,YAMAA-01,YAMAA-01-001,2,T02,TUMIDENT,Tumor Identification,TARGET,TARGET,MEDIASTINAL LYMPH NODE,,CT SCAN,INVESTIGATOR,1,SCREENING,2026-01-05
TU,YAMAA-01,YAMAA-01-001,3,NT01,TUMIDENT,Tumor Identification,NON-TARGET,NON-TARGET,LUNG,LEFT,CT SCAN,INVESTIGATOR,1,SCREENING,2026-01-05
TU,YAMAA-01,YAMAA-01-001,4,NEW01,TUMIDENT,Tumor Identification,NEW,NEW,ADRENAL GLAND,RIGHT,CT SCAN,INVESTIGATOR,4,WEEK 12,2026-03-30
TU,YAMAA-01,YAMAA-01-002,1,T01,TUMIDENT,Tumor Identification,TARGET,TARGET,LIVER,LEFT,CT SCAN,INVESTIGATOR,1,SCREENING,2026-01-12
TU,YAMAA-01,YAMAA-01-002,2,NT01,TUMIDENT,Tumor Identification,NON-TARGET,NON-TARGET,BONE,,CT SCAN,INVESTIGATOR,1,SCREENING,2026-01-12
