STUDYID,USUBJID,CMSEQ,CMTRT,CMDECOD,ATC1,ATC2,ATC3,ATC4,ATC1CD,ATC2CD,ATC3CD,ATC4CD
YAMAA-01,YAMAA-01-101,1,ASPIRIN 100MG,ACETYLSALICYLIC ACID,BLOOD AND BLOOD FORMING ORGANS,ANTITHROMBOTIC AGENTS,ANTITHROMBOTIC AGENTS,PLATELET AGGREGATION INHIBITORS EXCL. HEPARIN,B,B01,B01A,B01AC
YAMAA-01,YAMAA-01-101,2,LIPITOR 20MG,ATORVASTATIN,CARDIOVASCULAR SYSTEM,LIPID MODIFYING AGENTS,"LIPID MODIFYING AGENTS, PLAIN",HMG COA REDUCTASE INHIBITORS,C,C10,C10A,C10AA
YAMAA-01,YAMAA-01-101,3,HERBAL TEA,,,,,,,,,
YAMAA-01,YAMAA-01-102,1,ASPIRIN 100MG,ACETYLSALICYLIC ACID,BLOOD AND BLOOD FORMING ORGANS,ANTITHROMBOTIC AGENTS,ANTITHROMBOTIC AGENTS,PLATELET AGGREGATION INHIBITORS EXCL. HEPARIN,B,B01,B01A,B01AC
YAMAA-01,YAMAA-01-103,1,METFORMIN 500MG,METFORMIN,ALIMENTARY TRACT AND METABOLISM,DRUGS USED IN DIABETES,"BLOOD GLUCOSE LOWERING DRUGS, EXCL. INSULINS",BIGUANIDES,A,A10,A10B,A10BA
YAMAA-01,YAMAA-01-103,2,GREEN TEA EXTRACT,,,,,,,,,
