STUDYID,USUBJID,PARAMCD,PARAM,ASEQ,AVISIT,AVAL,ANRLO,ANRHI,ANRIND,ABLFL,BASE,BNRIND,SHIFT1,R2BASE,CRIT1,CRIT1FL,CRIT2,CRIT2FL
YAMAA-01,YAMAA-01-201,ALT,Alanine Aminotransferase (U/L),1,BASELINE,30,0,40,NORMAL,Y,30,NORMAL,NORMAL to NORMAL,1,Result greater than 3 x ULN,N,Result less than LLN,N
YAMAA-01,YAMAA-01-201,ALT,Alanine Aminotransferase (U/L),2,WEEK 2,60,0,40,HIGH,,30,NORMAL,NORMAL to HIGH,2,Result greater than 3 x ULN,N,Result less than LLN,N
YAMAA-01,YAMAA-01-201,ALT,Alanine Aminotransferase (U/L),3,WEEK 4,150,0,40,HIGH,,30,NORMAL,NORMAL to HIGH,5,Result greater than 3 x ULN,Y,Result less than LLN,N
YAMAA-01,YAMAA-01-201,ALT,Alanine Aminotransferase (U/L),4,WEEK 8,40,0,40,NORMAL,,30,NORMAL,NORMAL to NORMAL,1.3333333333333333,Result greater than 3 x ULN,N,Result less than LLN,N
YAMAA-01,YAMAA-01-202,ALT,Alanine Aminotransferase (U/L),1,BASELINE,45,0,40,HIGH,Y,45,HIGH,HIGH to HIGH,1,Result greater than 3 x ULN,N,Result less than LLN,N
YAMAA-01,YAMAA-01-202,ALT,Alanine Aminotransferase (U/L),2,WEEK 2,18,0,40,NORMAL,,45,HIGH,HIGH to NORMAL,0.4,Result greater than 3 x ULN,N,Result less than LLN,N
YAMAA-01,YAMAA-01-202,ALT,Alanine Aminotransferase (U/L),3,WEEK 4,,0,40,,,45,HIGH,,,,,,
YAMAA-01,YAMAA-01-202,ALT,Alanine Aminotransferase (U/L),4,WEEK 8,120,0,40,HIGH,,45,HIGH,HIGH to HIGH,2.6666666666666665,Result greater than 3 x ULN,N,Result less than LLN,N
YAMAA-01,YAMAA-01-203,EOS,Eosinophils (%),1,BASELINE,0,1,6,LOW,Y,0,LOW,LOW to LOW,,Result greater than 3 x ULN,N,Result less than LLN,Y
YAMAA-01,YAMAA-01-203,EOS,Eosinophils (%),2,WEEK 2,4,1,6,NORMAL,,0,LOW,LOW to NORMAL,,Result greater than 3 x ULN,N,Result less than LLN,N
YAMAA-01,YAMAA-01-203,EOS,Eosinophils (%),3,WEEK 4,1,1,6,NORMAL,,0,LOW,LOW to NORMAL,,Result greater than 3 x ULN,N,Result less than LLN,N
YAMAA-01,YAMAA-01-203,LDH,Lactate Dehydrogenase (U/L),3,BASELINE,200,,,,Y,200,,,1,,,,
YAMAA-01,YAMAA-01-203,LDH,Lactate Dehydrogenase (U/L),4,WEEK 2,260,,,,,200,,,1.3,,,,
YAMAA-01,YAMAA-01-203,GGT,Gamma Glutamyl Transferase (U/L),5,BASELINE,55,10,,,Y,55,,,1,,,Result less than LLN,N
YAMAA-01,YAMAA-01-203,GGT,Gamma Glutamyl Transferase (U/L),6,WEEK 2,70,10,,,,55,,,1.2727272727272727,,,Result less than LLN,N
YAMAA-01,YAMAA-01-203,EOS,Eosinophils (%),4,WEEK 8,0.5,1,6,LOW,,0,LOW,LOW to LOW,,Result greater than 3 x ULN,N,Result less than LLN,Y
YAMAA-01,YAMAA-01-203,GGT,Gamma Glutamyl Transferase (U/L),7,WEEK 4,5,10,,,,55,,,0.09090909090909091,,,Result less than LLN,Y
