STUDYID,USUBJID,RSSEQ,RSDTC,RSSTRESC
PILOT7,P7-201,1,2025-01-01,PR
PILOT7,P7-201,2,2025-02-12,PR
PILOT7,P7-202,1,2025-01-01,PR
PILOT7,P7-202,2,2025-02-12,SD
PILOT7,P7-203,1,2025-01-01,PR
PILOT7,P7-203,2,2025-01-15,PR
PILOT7,P7-204,1,2025-01-01,PR
PILOT7,P7-205,1,2025-01-01,PD
PILOT7,P7-205,2,2025-02-12,NE
PILOT7,P7-206,1,2025-04-01,PR
PILOT7,P7-206,2,2025-04-01,PR
PILOT7,P7-207,1,2025-01-01,PR
PILOT7,P7-207,2,2025-01-29,CR
PILOT7,P7-208,1,2025-05-06,
