STUDYID,USUBJID,CMSEQ,CMTRT,CMDECOD
YAMAA-01,YAMAA-01-101,1,ASPIRIN 100MG,ACETYLSALICYLIC ACID
YAMAA-01,YAMAA-01-101,2,LIPITOR 20MG,ATORVASTATIN
YAMAA-01,YAMAA-01-101,3,HERBAL TEA,
YAMAA-01,YAMAA-01-102,1,ASPIRIN 100MG,ACETYLSALICYLIC ACID
YAMAA-01,YAMAA-01-103,1,METFORMIN 500MG,METFORMIN
YAMAA-01,YAMAA-01-103,2,GREEN TEA EXTRACT,
