STUDYID,USUBJID,FASEQ,FALNKGRP,CMSEQ,FATESTCD,FAORRES
T1,S01,1,GRP1,1,ATC1,B
T1,S01,2,GRP1,1,ATC2,B01
T1,S01,3,GRP1,1,ATC3,B01A
T1,S01,4,GRP1,1,ATC4,B01AC
T1,S01,5,GRP2,2,ATC1,C
T1,S01,6,GRP2,2,ATC2,C10
T1,S01,7,GRP2,2,ATC3,C10A
T1,S01,8,GRP2,2,ATC4,C10AA
T1,S02,9,GRP3,1,ATC1,B
T1,S02,10,GRP3,1,ATC2,B01
T1,S02,11,GRP3,1,ATC3,B01A
T1,S02,12,GRP3,1,ATC4,B01AC
