STUDYID,USUBJID,AVISIT,AVISITN,ADT,PARAMCD,PARAM,AVAL,NMEAS,NTARGET,ANL01FL
YAMAA-01,YAMAA-01-101,BASELINE,0,2025-01-05,SDIAM,Sum of Target Lesion Diameters (mm),80,3,3,Y
YAMAA-01,YAMAA-01-101,WEEK 8,8,2025-03-02,SDIAM,Sum of Target Lesion Diameters (mm),50,2,3,
YAMAA-01,YAMAA-01-101,WEEK 16,16,2025-04-27,SDIAM,Sum of Target Lesion Diameters (mm),,,3,
YAMAA-01,YAMAA-01-102,BASELINE,0,2025-01-12,SDIAM,Sum of Target Lesion Diameters (mm),40,2,2,Y
YAMAA-01,YAMAA-01-102,WEEK 8,8,2025-03-09,SDIAM,Sum of Target Lesion Diameters (mm),22,2,2,Y
YAMAA-01,YAMAA-01-103,BASELINE,0,2025-01-19,SDIAM,Sum of Target Lesion Diameters (mm),50,1,1,Y
YAMAA-01,YAMAA-01-103,WEEK 8,8,,SDIAM,Sum of Target Lesion Diameters (mm),45,1,1,Y
YAMAA-01,YAMAA-01-104,BASELINE,0,2025-02-03,SDIAM,Sum of Target Lesion Diameters (mm),64,2,2,Y
YAMAA-01,YAMAA-01-105,BASELINE,0,2025-01-08,SDIAM,Sum of Target Lesion Diameters (mm),70,3,3,Y
YAMAA-01,YAMAA-01-105,WEEK 8,8,2025-03-05,SDIAM,Sum of Target Lesion Diameters (mm),45,3,3,Y
YAMAA-01,YAMAA-01-105,WEEK 16,16,2025-04-30,SDIAM,Sum of Target Lesion Diameters (mm),45,2,3,Y
YAMAA-01,YAMAA-01-105,WEEK 24,24,2025-06-25,SDIAM,Sum of Target Lesion Diameters (mm),58,2,3,Y
YAMAA-01,YAMAA-01-106,BASELINE,0,2025-02-10,SDIAM,Sum of Target Lesion Diameters (mm),30,2,2,Y
YAMAA-01,YAMAA-01-106,WEEK 8,8,2025-04-06,SDIAM,Sum of Target Lesion Diameters (mm),0,1,2,Y
