DOMAIN,STUDYID,USUBJID,LBSEQ,LBTESTCD,LBTEST,LBORRES,LBORRESU,LBSTRESC,LBSTRESN,LBSTRESU,LBNRIND,LBDTC
LB,STUDY01,STUDY01-101,1,PROT,Protein,NEGATIVE,,NEGATIVE,,,,2026-08-01
LB,STUDY01,STUDY01-101,2,GLUC,Glucose,Neg,,NEGATIVE,,,,2026-08-01
LB,STUDY01,STUDY01-101,3,KETON,Ketones,TRACE,,TRACE,,,,2026-08-01
LB,STUDY01,STUDY01-102,1,PROT,Protein,neg,,NEGATIVE,,,,2026-08-03
LB,STUDY01,STUDY01-102,2,GLUC,Glucose,tr,,TRACE,,,,2026-08-03
LB,STUDY01,STUDY01-102,3,KETON,Ketones,Trace,,TRACE,,,,2026-08-03
LB,STUDY01,STUDY01-103,1,PROT,Protein,1+,,1+,,,,2026-08-05
LB,STUDY01,STUDY01-103,2,GLUC,Glucose,+1,,1+,,,,2026-08-05
LB,STUDY01,STUDY01-103,3,KETON,Ketones,1 plus,,1+,,,,2026-08-05
LB,STUDY01,STUDY01-104,1,PROT,Protein,2+,,2+,,,,2026-08-07
LB,STUDY01,STUDY01-104,2,CREAT,Creatinine,<0.1,mg/dL,<0.1,,mg/dL,LOW,2026-08-07
LB,STUDY01,STUDY01-104,3,CREAT,Creatinine,0.9,mg/dL,0.9,0.9,mg/dL,,2026-08-07
LB,STUDY01,STUDY01-105,1,CK,Creatine Kinase,>500,U/L,>500,,U/L,HIGH,2026-08-09
LB,STUDY01,STUDY01-105,2,GLUC,Glucose,+2,,2+,,,,2026-08-09
