STUDYID,USUBJID,LBSEQ,LBTESTCD,SEX,LBNAM,BRTHDTC,LBDTC,LBSTRESN
PILOT7,P7-501,1,ALT,M,Central Lab,1980-05-01,2025-03-15,15
PILOT7,P7-502,1,ALT,F,Central Lab,1990-02-10,2025-07-01,39
PILOT7,P7-503,1,HGB,F,Local Lab A,2017-09-20,2025-02-01,12.5
PILOT7,P7-504,1,HGB,M,Local Lab A,2007-06-01,2025-06-01,12.5
PILOT7,P7-505,1,CREAT,M,Central Lab,1975-11-11,2025-04-01,0.9
PILOT7,P7-506,1,ALT,M,Central Lab,1988-03-03,2025-08-01,
PILOT7,P7-507,1,POTASSIUM,F,Local Lab A,1995-12-12,2025-05-05,5.5
