STUDYID,USUBJID,AESEQ,AETERM,AEDECOD
PILOT7,P7-301,1,Rash all over,RASH
PILOT7,P7-301,2,Feeling sick,NAUSEA
PILOT7,P7-302,1,Jaundice and dark urine,HEPATITIS
PILOT7,P7-302,2,Loose stools,DIARRHOEA
PILOT7,P7-303,1,Headache,HEADACHE
PILOT7,P7-303,2,Odd sensation in the left arm,
PILOT7,P7-304,1,Severe skin blistering,STEVENS-JOHNSON SYNDROME
PILOT7,P7-305,1,Recurrent nausea,NAUSEA
PILOT7,P7-305,2,Acute liver failure,HEPATIC FAILURE
PILOT7,P7-305,3,Target lesions on trunk,ERYTHEMA MULTIFORME
