STUDYID,USUBJID,ASTDT,AESEQ,AEDECOD
YAMAA-01,YAMAA-01-101,2026-01-10,1,HEADACHE
YAMAA-01,YAMAA-01-101,2026-02-04,2,NAUSEA
YAMAA-01,YAMAA-01-103,2025-12-15,1,HEADACHE
YAMAA-01,YAMAA-01-104,2026-12-31,1,COUGH
YAMAA-01,YAMAA-01-105,2026-01-15,1,HEADACHE
YAMAA-01,YAMAA-01-105,2026-01-15,2,NAUSEA
YAMAA-01,YAMAA-01-105,,3,RASH
YAMAA-01,YAMAA-01-108,2026-01-10,1,HEADACHE
YAMAA-01,YAMAA-01-109,,1,HEADACHE
YAMAA-01,YAMAA-01-110,2026-03-01,1,NAUSEA
