STUDYID,USUBJID,AESEQ,AETERM,AESER,AESTDTC
PILOT7,P7-995,1,Nausea,N,2023-02-11
PILOT7,P7-995,2,Pneumonitis,Y,2023-03-04
PILOT7,P7-995,3,Neutropenia,Y,2023-02-20
PILOT7,P7-995,4,Pneumonia,Y,2023-02-20
PILOT7,P7-995,5,Anemia,Y,
PILOT7,P7-996,1,Fatigue,N,2023-01-15
PILOT7,P7-996,2,Headache,N,2023-02-02
PILOT7,P7-996,3,Dizziness,N,
PILOT7,P7-997,1,Rash,Y,2023-05-10
PILOT7,P7-997,2,Vomiting,N,2023-05-12
