STUDYID,USUBJID,EXSEQ,EXTRT,EXDOSE,EXDOSU,EXDOSFRQ,EXSTDTC,EXENDTC,EXDOSCNT
PILOT7,P7-501,1,Study Drug,10,mg,QD,2025-04-01,2025-04-01,1
PILOT7,P7-501,2,Study Drug,10,mg,QD,2025-04-08,2025-04-09,2
PILOT7,P7-502,1,Study Drug,20,mg,QD,2025-04-02,2025-04-06,5
PILOT7,P7-503,1,Study Drug,15,mg,QD,2025-04-03,2025-04-03,0
