DOMAIN,STUDYID,USUBJID,VSSEQ,VISIT,VSTESTCD,VSTEST,VSORRES,VSORRESU,VSSTRESN,VSSTRESC,VSSTRESU,VSSTAT
VS,YAMAA-01,YAMAA-01-101,1,SCREENING,HEIGHT,Height,168.2,cm,168.2,168.2,cm,
VS,YAMAA-01,YAMAA-01-102,4,WEEK 2,HEIGHT,Height,165.5,cm,165.5,165.5,cm,
VS,YAMAA-01,YAMAA-01-103,1,BASELINE,HEIGHT,Height,172,cm,172,172,cm,
VS,YAMAA-01,YAMAA-01-101,2,SCREENING,WEIGHT,Weight,72.5,kg,72.5,72.5,kg,
VS,YAMAA-01,YAMAA-01-102,1,SCREENING,WEIGHT,Weight,175,LB,79.37866475,79.37866475,kg,
VS,YAMAA-01,YAMAA-01-101,3,SCREENING,TEMP,Temperature,36.8,C,36.8,36.8,C,
VS,YAMAA-01,YAMAA-01-101,4,WEEK 2,TEMP,Temperature,98.6,F,37,37,C,
VS,YAMAA-01,YAMAA-01-101,5,WEEK 2,TEMP,Temperature,37,C,37,37,C,
VS,YAMAA-01,YAMAA-01-102,2,SCREENING,TEMP,Temperature,100.4,F,38,38,C,
VS,YAMAA-01,YAMAA-01-102,3,WEEK 2,TEMP,Temperature,,,,,,NOT DONE
