DOMAIN,STUDYID,USUBJID,ASEQ,PARAMCD,PARAM,AVAL,AVALC,ADT,SRCDOM,SRCVAR,SRCSEQ
ADFA,PROJ1,SUBJ1,1,FEVER,Fever Occurrence,1,Y,2024-01-15,VS,VSSTRESN,1
ADFA,PROJ1,SUBJ1,2,FEVER,Fever Occurrence,0,N,2024-01-16,VS,VSSTRESN,2
ADFA,PROJ1,SUBJ1,3,FEVER,Fever Occurrence,,,2024-01-17,VS,VSSTRESN,3
ADFA,PROJ1,SUBJ2,1,FEVER,Fever Occurrence,,,2024-01-15,VS,VSSTRESN,1
ADFA,PROJ1,SUBJ2,2,FEVER,Fever Occurrence,1,Y,2024-01-17,VS,VSSTRESN,3
