DOMAIN,STUDYID,USUBJID,LBSEQ,LBTESTCD,SEX,LBSTRESN,LBORRESU,LBSTNRLO,LBSTNRHI,LBNRIND
LB,PILOT7,P7-501,1,ALT,M,15,U/L,0,40,NORMAL
LB,PILOT7,P7-502,1,ALT,F,55,U/L,0,40,HIGH
LB,PILOT7,P7-503,1,HGB,M,12.5,g/dL,13.5,17.5,LOW
LB,PILOT7,P7-504,1,HGB,F,12.5,g/dL,12,16,NORMAL
LB,PILOT7,P7-505,1,CREAT,M,0.9,mg/dL,0.7,1.3,NORMAL
LB,PILOT7,P7-506,1,POTASSIUM,F,3.2,mmol/L,3.5,5.1,LOW
LB,PILOT7,P7-507,1,ALT,M,,U/L,0,40,
