DOMAIN,STUDYID,USUBJID,DSSEQ,DSDECOD,DSCAT,DSDTC
DS,KN189,KN189-101,2,COMPLETED,DISPOSITION EVENT,2024-01-10
DS,KN189,KN189-101,1,RANDOMIZED,PROTOCOL MILESTONE,2023-12-20
DS,KN189,KN189-102,1,ADVERSE EVENT,DISPOSITION EVENT,2024-02-15
DS,KN189,KN189-103,1,COMPLETED,DISPOSITION EVENT,2024-03-01
DS,KN189,KN189-104,1,RANDOMIZED,PROTOCOL MILESTONE,2024-01-05
DS,KN189,KN189-105,2,SCREEN FAILURE,DISPOSITION EVENT,
DS,KN189,KN189-105,1,RANDOMIZED,PROTOCOL MILESTONE,2024-01-05
