STUDYID,USUBJID,VISIT,VSTESTCD,VSTEST,VSORRES,VSORRESU,VSREPNUM
YAMAA-01,YAMAA-01-001,VISIT 1,SYSBP,Systolic Blood Pressure,120,mmHg,1
YAMAA-01,YAMAA-01-001,VISIT 1,SYSBP,Systolic Blood Pressure,122,mmHg,2
YAMAA-01,YAMAA-01-001,VISIT 1,SYSBP,Systolic Blood Pressure,118,mmHg,3
YAMAA-01,YAMAA-01-001,VISIT 1,DIABP,Diastolic Blood Pressure,80,mmHg,1
YAMAA-01,YAMAA-01-001,VISIT 1,DIABP,Diastolic Blood Pressure,78,mmHg,2
YAMAA-01,YAMAA-01-001,VISIT 1,DIABP,Diastolic Blood Pressure,82,mmHg,3
YAMAA-01,YAMAA-01-001,VISIT 2,SYSBP,Systolic Blood Pressure,116,mmHg,1
YAMAA-01,YAMAA-01-001,VISIT 2,SYSBP,Systolic Blood Pressure,114,mmHg,2
YAMAA-01,YAMAA-01-001,VISIT 2,SYSBP,Systolic Blood Pressure,118,mmHg,3
YAMAA-01,YAMAA-01-001,VISIT 2,DIABP,Diastolic Blood Pressure,76,mmHg,1
YAMAA-01,YAMAA-01-001,VISIT 2,DIABP,Diastolic Blood Pressure,78,mmHg,2
YAMAA-01,YAMAA-01-001,VISIT 2,DIABP,Diastolic Blood Pressure,74,mmHg,3
YAMAA-01,YAMAA-01-002,VISIT 1,SYSBP,Systolic Blood Pressure,130,mmHg,1
YAMAA-01,YAMAA-01-002,VISIT 1,SYSBP,Systolic Blood Pressure,132,mmHg,2
YAMAA-01,YAMAA-01-002,VISIT 1,SYSBP,Systolic Blood Pressure,128,mmHg,3
YAMAA-01,YAMAA-01-002,VISIT 1,DIABP,Diastolic Blood Pressure,86,mmHg,1
YAMAA-01,YAMAA-01-002,VISIT 1,DIABP,Diastolic Blood Pressure,84,mmHg,2
YAMAA-01,YAMAA-01-002,VISIT 1,DIABP,Diastolic Blood Pressure,88,mmHg,3
YAMAA-01,YAMAA-01-002,VISIT 2,SYSBP,Systolic Blood Pressure,124,mmHg,1
YAMAA-01,YAMAA-01-002,VISIT 2,SYSBP,Systolic Blood Pressure,126,mmHg,2
YAMAA-01,YAMAA-01-002,VISIT 2,DIABP,Diastolic Blood Pressure,82,mmHg,1
YAMAA-01,YAMAA-01-002,VISIT 2,DIABP,Diastolic Blood Pressure,80,mmHg,2
YAMAA-01,YAMAA-01-002,VISIT 2,DIABP,Diastolic Blood Pressure,84,mmHg,3
