STUDYID,USUBJID,PARAMCD,PARAM,STARTDT,ADT,AVAL,CNSR,EVNTDESC,CNSDTDSC,SRCDOM,SRCVAR,SRCSEQ
PILOT7,P7-941,DOR,Duration of Response,2025-02-17,2025-05-19,92,0,DISEASE PROGRESSION,,ADRS,ADT,3
PILOT7,P7-942,DOR,Duration of Response,2025-01-20,2025-04-14,85,1,CENSORED,START OF NEW ANTI-CANCER THERAPY,ADSL,NACTDT,
PILOT7,P7-943,DOR,Duration of Response,2025-02-03,2025-03-10,36,1,CENSORED,LAST TUMOUR ASSESSMENT,ADRS,ADT,2
PILOT7,P7-944,DOR,Duration of Response,2025-03-03,2025-06-16,106,0,DEATH,,DS,DSSTDTC,1
PILOT7,P7-945,DOR,Duration of Response,2025-03-17,2025-05-05,50,0,DISEASE PROGRESSION,,ADRS,ADT,2
