STUDYID,USUBJID,PARAMCD,PARAM,STARTDT,ADT,AVAL,CNSR,EVNTDESC,CNSDTDSC,SRCDOM,SRCVAR,SRCSEQ
YAMAA-01,YAMAA-01-101,OS,Overall Survival,2026-01-01,2026-06-01,152,0,Death,,ADRS,ADT,1
YAMAA-01,YAMAA-01-102,OS,Overall Survival,2026-01-01,2026-09-01,244,1,Alive,Alive During Study,ADSL,LSTALVDT,
YAMAA-01,YAMAA-01-103,OS,Overall Survival,2026-01-01,2026-01-01,1,1,Randomization,Randomization,ADSL,RANDDT,
YAMAA-01,YAMAA-01-104,OS,Overall Survival,2026-03-01,2026-03-01,1,1,Randomization,Randomization,ADSL,RANDDT,
YAMAA-01,YAMAA-01-105,OS,Overall Survival,2026-04-01,2026-04-01,1,1,Randomization,Randomization,ADSL,RANDDT,
YAMAA-01,YAMAA-01-106,OS,Overall Survival,2026-05-01,2026-05-01,1,0,Death,,ADRS,ADT,2
YAMAA-01,YAMAA-01-107,OS,Overall Survival,2026-02-01,2026-02-01,1,0,Death,,ADRS,ADT,1
YAMAA-01,YAMAA-01-108,OS,Overall Survival,2026-01-01,2026-07-01,182,0,Death,,ADRS,ADT,2
YAMAA-01,YAMAA-01-109,OS,Overall Survival,2026-01-01,2026-05-01,121,0,Death,,ADRS,ADT,2
YAMAA-01,YAMAA-01-110,OS,Overall Survival,2026-01-01,2026-12-01,335,1,Alive,Alive During Study,ADSL,LSTALVDT,
