STUDYID,USUBJID,VSSEQ,SERIES,AVISITN,AVALC
YAMAA-01,YAMAA-01-101,1,A,,NULL-ORDER
YAMAA-01,YAMAA-01-101,2,A,1,FIRST
YAMAA-01,YAMAA-01-101,3,A,1,
YAMAA-01,YAMAA-01-101,4,A,2,
YAMAA-01,YAMAA-01-101,5,B,1,B-FIRST
YAMAA-01,YAMAA-01-101,6,B,2,
YAMAA-01,YAMAA-01-101,7,,1,UNGROUPED
YAMAA-01,YAMAA-01-101,8,,2,
YAMAA-01,YAMAA-01-102,9,A,1,SOLO
YAMAA-01,YAMAA-01-103,10,C,1,
YAMAA-01,YAMAA-01-103,11,C,2,
YAMAA-01,YAMAA-01-103,12,C,3,LATE
YAMAA-01,YAMAA-01-103,13,C,,
YAMAA-01,YAMAA-01-103,14,C,,
