STUDYID,USUBJID,CMSEQ,CMTRT,CMCAT,CMSTDTC
YAMAA-01,YAMAA-01-101,1,LISINOPRIL,CONCOMITANT MEDICATION,2025-02-10
YAMAA-01,YAMAA-01-101,2,DEXAMETHASONE,RESCUE MEDICATION,2025-03-20
YAMAA-01,YAMAA-01-101,3,PREDNISONE,RESCUE MEDICATION,2025-03-05
YAMAA-01,YAMAA-01-102,1,ATORVASTATIN,CONCOMITANT MEDICATION,2025-02-15
YAMAA-01,YAMAA-01-102,2,METFORMIN,CONCOMITANT MEDICATION,2025-03-01
YAMAA-01,YAMAA-01-103,1,ALBUTEROL,RESCUE MEDICATION,2025-04-01
YAMAA-01,YAMAA-01-103,2,SALBUTAMOL,RESCUE MEDICATION,2025-04-01
YAMAA-01,YAMAA-01-103,3,OMEPRAZOLE,CONCOMITANT MEDICATION,2025-03-15
YAMAA-01,YAMAA-01-104,1,ONDANSETRON,RESCUE MEDICATION,2025-05-12
YAMAA-01,YAMAA-01-104,1,ONDANSETRON,RESCUE MEDICATION,2025-05-12
YAMAA-01,YAMAA-01-104,2,LEVOTHYROXINE,CONCOMITANT MEDICATION,2025-02-20
YAMAA-01,YAMAA-01-106,1,LOPERAMIDE,RESCUE MEDICATION,
YAMAA-01,YAMAA-01-106,2,IBUPROFEN,CONCOMITANT MEDICATION,2025-06-01
