STUDYID,USUBJID,TUSEQ,TUTESTCD,VISIT,TUSTRESC
XX1234,1,1,TUMIDENT,SCREENING,TARGET
XX1234,1,2,TUMIDENT,WEEK 1,TARGET
XX1234,1,3,TUMIDENT,WEEK 5,TARGET
XX1234,1,4,TUMIDENT,WEEK 9,NON-TARGET
XX1234,2,1,TUMIDENT,SCREENING,NON-TARGET
XX1234,2,2,TUMIDENT,SCREENING,NON-TARGET
