schema_version: "1.0"
domain: ADRS
keys: [STUDYID, USUBJID, RSSEQ]
input:
  RS: input/rs.csv

output:
  path: adrs.csv
  columns: [STUDYID, USUBJID, PARAMCD, RSSEQ, ADT, AVALC, CONFIRMED]

columns:
  - name: STUDYID
    type: str
    label: Study Identifier
    derivation:
      source: RS.STUDYID

  - name: USUBJID
    type: str
    label: Unique Subject Identifier
    derivation:
      source: RS.USUBJID

  - name: PARAMCD
    type: str
    label: Parameter Code
    derivation:
      literal: CONFRESP

  - name: RSSEQ
    type: int
    label: Sequence Number
    derivation:
      source: RS.RSSEQ

  - name: ADT
    type: date
    label: Analysis Date
    derivation:
      source: RS.RSDTC

  - name: AVALC
    type: str
    label: Analysis Value (C)
    derivation:
      source: RS.RSSTRESC

  - name: NEXTDT
    type: date
    label: Next Assessment Date
    derivation:
      row_value:
        source: ADT
        offset: 1
        window:
          group_by: [STUDYID, USUBJID]
          order_by: [ADT, RSSEQ]

  - name: NEXTRESP
    type: str
    label: Next Response
    derivation:
      row_value:
        source: AVALC
        offset: 1
        window:
          group_by: [STUDYID, USUBJID]
          order_by: [ADT, RSSEQ]

  - name: DAYS_TO_NEXT
    type: int
    label: Days to Next Assessment
    derivation:
      date_diff:
        start: ADT
        end: NEXTDT
        unit: day

  - name: CONFIRMED
    type: str
    label: Confirmation Flag
    derivation:
      case:
        - when: "AVALC = 'PD'"
          then:
            literal: Y
        - when: "AVALC IN ('PR', 'CR') AND NEXTRESP IN ('PR', 'CR') AND DAYS_TO_NEXT >= 28"
          then:
            literal: Y
        - otherwise:
            literal: N

verifications:
  - row_count:
      min: 9
      max: 9
