STUDYID,USUBJID,SUBJID,ARMCD,SITEIDP,SITEID,SUBJREF,COUNTRYUC,REGION1,TRT01RAW,TRT01SRC,TRT01A,TRTSDT,TRTEDT,TRTDUR0,TRTDURD,EOSDT,EOSDECOD,EOSREAS,EOSSTT,DCSREAS,SAFFL,ITTFL
CATH,CATH-UCSD-0001,0001,VITD,UCSD,UCSD,UCSD:0001,USA,North America,VITAMIN D3,VITAMIN D3,VITAMIN D3,2025-01-08,2025-01-28,20,21,2025-01-29,COMPLETED,COMPLETED STUDY,COMPLETED,,Y,Y
CATH,CATH-UCSD-0002,0002,PLAC,UCSD,UCSD,UCSD:0002,CAN,North America,PLACEBO,PLACEBO,PLACEBO,2025-02-08,2025-02-28,20,21,2025-02-20,DISCONTINUED,ADVERSE EVENT,DISCONTINUED,ADVERSE EVENT,Y,Y
CATH,SUBJECT-0003,0003,VITD,,UCSD,UCSD:0003,DEU,Europe,,Vitamin D3,VITAMIN D3,,,,,,,,ONGOING,,N,Y
CATH,CATH-UCSD-0004,,,UCSD,UCSD,UNKNOWN,UNKNOWN,Rest of World,,NOT TREATED,NOT TREATED,,,,,2025-03-02,SCREEN FAILURE,ELIGIBILITY CRITERIA NOT MET,DISCONTINUED,ELIGIBILITY CRITERIA NOT MET,N,N
