POPFL,SAFFL,ITTFL,TRTSDT,RANDDT,AGEGR1,AGERNK,STUDYID,USUBJID,AGE
Y,Y,Y,2025-01-08,2025-01-05,<65,2,YAMAA-01,YAMAA-01-101,34
Y,Y,Y,2025-02-08,2025-02-05,>=65,5,YAMAA-01,YAMAA-01-102,65
N,N,N,,,<65,4,YAMAA-01,YAMAA-01-103,52
N,N,Y,,2025-02-20,>=65,6,YAMAA-01,YAMAA-01-104,65
N,Y,N,2025-02-28,,<65,3,YAMAA-01,YAMAA-01-105,41
Y,Y,Y,2025-03-05,2025-03-01,>=65,7,YAMAA-01,YAMAA-01-106,88
N,N,Y,,2025-04-01,<65,1,YAMAA-01,YAMAA-01-107,29
