STUDYID,USUBJID,PARAMCD,PARAM,AVISIT,PCHG,SAEFL,DCSREAS,AVALC,ARSN,AVAL
CATH,CATH-UCSD-0001,RESP75,EASI-75 Response,WEEK 4,-80,,,RESPONDER,THRESHOLD MET,1
CATH,CATH-UCSD-0002,RESP75,EASI-75 Response,WEEK 4,-50,,,NON-RESPONDER,THRESHOLD NOT MET,0
CATH,CATH-UCSD-0003,RESP75,EASI-75 Response,WEEK 4,-85,Y,,NON-RESPONDER,SAFETY OR DISCONTINUATION RULE,0
CATH,CATH-UCSD-0004,RESP75,EASI-75 Response,WEEK 4,,,ADVERSE EVENT,NON-RESPONDER,SAFETY OR DISCONTINUATION RULE,0
CATH,CATH-UCSD-0005,RESP75,EASI-75 Response,WEEK 4,,,,NOT EVALUABLE,COMPONENT MISSING,
