STUDYID,RDOMAIN,USUBJID,IDVAR,IDVARVAL,QNAM,QLABEL,QVAL
YAMAA-01,LB,YAMAA-01-101,LBSEQ,       2,ENDPOINT,Protocol Endpoint Record,Y
YAMAA-01,LB,YAMAA-01-101,LBSEQ,       2,LBTMSHI,Result to Upper Limit Ratio,0.9
YAMAA-01,LB,YAMAA-01-102,LBSEQ,       1,LBTMSHI,Result to Upper Limit Ratio,0.8
YAMAA-01,LB,YAMAA-01-103,LBSEQ,       7,ENDPOINT,Protocol Endpoint Record,Y
YAMAA-01,LB,YAMAA-01-104,LBSEQ,       1,ENDPOINT,Protocol Endpoint Record,Y
YAMAA-01,LB,YAMAA-01-105,LBSEQ,       1,ENDPOINT,Protocol Endpoint Record,Y
