STUDYID,USUBJID,AESEQ,AEDECOD,AESER
YAMAA-01,S1,1,HEADACHE,Y
YAMAA-01,S1,2,COUGH,N
YAMAA-01,S1,3,NAUSEA,Y
YAMAA-01,S1,4,FATIGUE,N
YAMAA-01,S1,5,RASH,N
YAMAA-01,S2,1,DIZZINESS,N
YAMAA-01,S2,2,FEVER,Y
YAMAA-01,S2,3,VOMITING,N
YAMAA-01,S3,1,BACK PAIN,N
YAMAA-01,S3,2,INFLUENZA,N
