DOMAIN,STUDYID,USUBJID,SVSEQ,VISIT,VISITNUM,VISITDY,SVSTDTC,SVENDTC,SVSTDY,SVENDY,TAETORD,EPOCH,SVUPDES
SV,YAMAA-01,001,1,Screening,-1,-7,2026-02-10,2026-02-10,-7,-7,1,SCREENING,
SV,YAMAA-01,001,2,Baseline,1,1,2026-02-17,2026-02-17,1,1,2,TREATMENT,
SV,YAMAA-01,001,3,Unscheduled,99.1,,2026-03-02,2026-03-02,14,14,,TREATMENT,Unscheduled safety visit
SV,YAMAA-01,001,4,Unscheduled,99.2,,2026-03-04,2026-03-04,16,16,,TREATMENT,Unscheduled follow-up visit
SV,YAMAA-01,001,5,Week 2,2,15,2026-03-05,2026-03-06,17,18,3,TREATMENT,
SV,YAMAA-01,002,1,Screening,-1,-7,2026-02-11,2026-02-11,-7,-7,1,SCREENING,
SV,YAMAA-01,002,2,Baseline,1,1,2026-02-18,2026-02-18,1,1,2,TREATMENT,
SV,YAMAA-01,002,3,Week 2,2,15,2026-03-07,2026-03-07,18,18,3,TREATMENT,
