STUDYID,USUBJID,EXSEQ,EXTRT,EXDOSE,EXSTDTC,EXENDTC
CATH,CATH-UCSD-0001,1,VITAMIN D3,1000,2025-01-08,2025-01-14
CATH,CATH-UCSD-0001,2,VITAMIN D3,2000,2025-01-15,2025-01-28
CATH,CATH-UCSD-0002,1,PLACEBO,0,2025-02-08,2025-02-20
CATH,CATH-UCSD-0004,1,VITAMIN D3,1000,2025-04-05,2025-04-26
CATH,CATH-UCSD-0005,1,VITAMIN D3,1000,2025-06-02,2025-06-15
CATH2,CATH-UCSD-0001,1,VITAMIN D3,1000,2025-05-06,2025-05-19
