STUDYID,USUBJID,EXTRT,EXSEQ,EXDOSE
PILOT7,P7-601,Pembrolizumab,1,200
PILOT7,P7-601,Pembrolizumab,2,200
PILOT7,P7-601,Pembrolizumab,3,0
PILOT7,P7-601,Pemetrexed,4,500
PILOT7,P7-601,Pemetrexed,5,450
PILOT7,P7-601,Pemetrexed,6,500
PILOT7,P7-602,Saline placebo,1,0
PILOT7,P7-602,Saline placebo,2,0
PILOT7,P7-602,Saline placebo,3,0
