DOMAIN,STUDYID,USUBJID,EXSEQ,EXTRT,EXDOSE,EXDOSU,EXSTDTC,EXENDTC
EX,STUDY01,001,1,FINASTERIDE,10,mg,2025-01-02,2025-01-02
EX,STUDY01,001,2,TRASTUZUMAB,420,mg,2025-01-23,2025-01-23
EX,STUDY01,002,1,DRUG X,100,mg,2025-02-05,2025-02-05
EX,STUDY01,002,2,TRASTUZUMAB,480,mg,2025-02-26,2025-02-26
EX,STUDY01,003,1,PLACEBO,0,mg,2025-03-04,2025-03-04
