STUDYID,USUBJID,PARAMCD,PARAM,STARTDT,ADT,AVAL,CNSR,EVNTDESC,SRCDOM,SRCVAR,SRCSEQ
PILOT8,P8-101,TTAE,Time to First Adverse Event,2026-01-01,2026-01-10,10,0,AE,ADAE,ASTDT,1
PILOT8,P8-102,TTAE,Time to First Adverse Event,2026-01-01,2026-12-31,365,1,END OF STUDY,ADSL,EOSDT,
PILOT8,P8-103,TTAE,Time to First Adverse Event,2026-01-01,2026-01-01,1,0,AE,ADAE,ASTDT,1
PILOT8,P8-104,TTAE,Time to First Adverse Event,2026-12-31,2026-12-31,1,0,AE,ADAE,ASTDT,1
PILOT8,P8-105,TTAE,Time to First Adverse Event,2026-01-01,2026-01-15,15,0,AE,ADAE,ASTDT,1
PILOT8,P8-106,TTAE,Time to First Adverse Event,2026-01-01,,,1,END OF STUDY,ADSL,EOSDT,
PILOT8,P8-107,TTAE,Time to First Adverse Event,2026-06-01,2026-06-01,1,1,END OF STUDY,ADSL,EOSDT,
PILOT8,P8-108,TTAE,Time to First Adverse Event,,2026-01-10,,0,AE,ADAE,ASTDT,1
