STUDYID,USUBJID,AESEQ,AETERM,AESTDTC,ASTDT,ASTDTC,ASTDTF,TRTSDT,TRTEMFL
CATH,CATH-UCSD-0001,1,HEADACHE,2025-01-15,2025-01-15,2025-01-15,,2025-01-10,Y
CATH,CATH-UCSD-0001,2,NAUSEA,2025-01,2025-01-15,2025-01-15,D,2025-01-10,Y
CATH,CATH-UCSD-0001,3,ECZEMA FLARE,2025,,,,2025-01-10,
CATH,CATH-UCSD-0001,4,DIZZINESS,UNKNOWN,,,,2025-01-10,
CATH,CATH-UCSD-0001,5,FATIGUE,,,,,2025-01-10,
CATH,CATH-UCSD-0001,6,RASH,2025-02-20,2025-02-20,2025-02-20,,2025-01-10,Y
