DOMAIN,STUDYID,USUBJID,VSSEQ,VSTESTCD,VSORRES,VSDTC,VISIT,VISITNUM,EPOCH,VSDY
VS,CATH,CATH-UCSD-0001,1,SYSBP,128,2025-01-02,SCREENING,1,SCREENING,-6
VS,CATH,CATH-UCSD-0001,2,SYSBP,132,2025-01-08,BASELINE,2,TREATMENT,1
VS,CATH,CATH-UCSD-0001,3,SYSBP,145,2025-01-15,UNSCHEDULED,,TREATMENT,8
VS,CATH,CATH-UCSD-0001,4,SYSBP,130,2025-02-05,WEEK 4,3,TREATMENT,29
VS,CATH,CATH-UCSD-0002,1,SYSBP,118,2025-02-08,BASELINE,2,TREATMENT,1
VS,CATH,CATH-UCSD-0002,2,SYSBP,122,,WEEK 4,3,,
VS,CATH,SUBJECT-0003,1,SYSBP,124,2025-03-01,BASELINE,2,,
