STUDYID,USUBJID,PARAMCD,PARAM,AVISIT,PCHG,SAEFL,DCSREAS,AVALC,ARSN,AVAL
YAMAA-01,YAMAA-01-101,RESP75,EASI-75 Response,WEEK 4,-80,,,RESPONDER,THRESHOLD MET,1
YAMAA-01,YAMAA-01-101,RESP75,EASI-75 Response,WEEK 8,-88,,,RESPONDER,THRESHOLD MET,1
YAMAA-01,YAMAA-01-102,RESP75,EASI-75 Response,WEEK 4,-50,,,NON-RESPONDER,THRESHOLD NOT MET,0
YAMAA-01,YAMAA-01-103,RESP75,EASI-75 Response,WEEK 4,-75,,,RESPONDER,THRESHOLD MET,1
YAMAA-01,YAMAA-01-104,RESP75,EASI-75 Response,WEEK 4,-74.9,,,NON-RESPONDER,THRESHOLD NOT MET,0
YAMAA-01,YAMAA-01-105,RESP75,EASI-75 Response,WEEK 4,-90,Y,,NON-RESPONDER,SAFETY OR DISCONTINUATION RULE,0
YAMAA-01,YAMAA-01-106,RESP75,EASI-75 Response,WEEK 4,,,ADVERSE EVENT,NON-RESPONDER,SAFETY OR DISCONTINUATION RULE,0
YAMAA-01,YAMAA-01-107,RESP75,EASI-75 Response,WEEK 4,,,,NOT EVALUABLE,COMPONENT MISSING,
YAMAA-01,YAMAA-01-108,RESP75,EASI-75 Response,WEEK 4,-60,Y,LACK OF EFFICACY,NON-RESPONDER,SAFETY OR DISCONTINUATION RULE,0
YAMAA-01,YAMAA-01-109,RESP75,EASI-75 Response,WEEK 4,,Y,,NON-RESPONDER,SAFETY OR DISCONTINUATION RULE,0
