STUDYID,DOMAIN,USUBJID,RFICDTC,RFXSTDTC,RFXENDTC,RFSTDTC,EXDOSE0,DSDT0,AEDT0,RFENDTC
CATH,DM,CATH-UCSD-0001,2025-01-02,2025-01-08,2025-01-28,2025-01-08,2000,2025-01-29,2025-02-03,2025-02-03
CATH,DM,CATH-UCSD-0002,2025-02-01,2025-02-08,2025-02-20,2025-02-08,0,2025-02-21,,2025-02-21
CATH,DM,CATH-UCSD-0003,2025-03-01,,,,,2025-03-02,,2025-03-02
CATH,DM,CATH-UCSD-0004,2025-04-01,2025-04-05,2025-04-26,2025-04-05,1000,,2025-04-20,2025-04-26
