STUDYID,USUBJID,LBTESTCD,LBSTRESN,VISITNUM
YAMAA-01,YAMAA-01-101,ALB,4.0,1
YAMAA-01,YAMAA-01-101,ALB,4.5,2
YAMAA-01,YAMAA-01-101,ALB,,3
YAMAA-01,YAMAA-01-101,ALB,4.75,4
YAMAA-01,YAMAA-01-101,BILI,1.0,1
YAMAA-01,YAMAA-01-101,BILI,1.25,2
YAMAA-01,YAMAA-01-101,BILI,1.5,3
YAMAA-01,YAMAA-01-102,ALB,3.75,1
YAMAA-01,YAMAA-01-102,BILI,2.0,1
YAMAA-01,YAMAA-01-102,BILI,2.25,2
YAMAA-01,YAMAA-01-103,ALB,,1
YAMAA-01,YAMAA-01-103,ALB,3.5,2
YAMAA-01,YAMAA-01-103,ALB,3.75,3
YAMAA-01,YAMAA-01-103,BILI,0.75,1
YAMAA-01,YAMAA-01-104,ALB,4.0,1
YAMAA-01,YAMAA-01-104,ALB,4.0,2
YAMAA-01,YAMAA-01-104,ALB,3.5,3
YAMAA-01,YAMAA-01-105,HGB,14.2,1
YAMAA-01,YAMAA-01-105,HGB,14.5,2
