STUDYID,USUBJID,LBSEQ,VISIT,LBTESTCD,LBORRES,LBDTC
STUDY01,101,1,SCREENING,ALT,32,2025-01-05
STUDY01,101,2,SCREENING,AST,28,2025-01-05
STUDY01,101,3,WEEK2,ALT,41,2025-01-19
STUDY01,101,4,WEEK2,ALT,39,2025-01-20
STUDY01,102,1,SCREENING,ALT,25,
STUDY01,102,2,SCREENING,AST,,
