DOMAIN,STUDYID,USUBJID,AESEQ,AETERM,AELLT,AELLTCD,AEDECOD,AEPTCD,AEHLT,AEHLTCD,AEHLGT,AEHLGTCD,AEBODSYS,AEBODSCD,AESOC,AESOCCD
AE,YAMAA-01,YAMAA-01-101,1,Pins in my left fingers,Left fingertip prickling,99000101,Distal paresthesia,99001001,Peripheral sensory changes,99010001,Nerve function findings,99100001,Nervous system disorders,99200001,Nervous system disorders,99200001
AE,YAMAA-01,YAMAA-01-101,2,My hand feels buzzy,Hand buzzing sensation,99000102,Distal paresthesia,99001001,Peripheral sensory changes,99010001,Nerve function findings,99100001,Nervous system disorders,99200001,Nervous system disorders,99200001
AE,YAMAA-01,YAMAA-01-102,1,Queasy after lunch,After-meal queasiness,99000201,Postprandial nausea,99001002,Stomach discomfort symptoms,99010003,Digestive symptom findings,99100003,Gastrointestinal disorders,99200003,Gastrointestinal disorders,99200003
AE,YAMAA-01,YAMAA-01-103,1,Pins in my left fingers,,99000999,,,,,,,,,,
AE,YAMAA-01,YAMAA-01-103,2,Pins in my left fingers,,,,,,,,,,,,
