STUDYID,RDOMAIN,USUBJID,IDVAR,IDVARVAL,QNAM,QLABEL,QVAL,QORIG,QEVAL
YAMAA-01,DM,YAMAA-01-102,USUBJID,YAMAA-01-102,RACE1,Race 1,ASIAN,CRF,
YAMAA-01,DM,YAMAA-01-102,USUBJID,YAMAA-01-102,RACE2,Race 2,BLACK OR AFRICAN AMERICAN,CRF,
YAMAA-01,DM,YAMAA-01-104,USUBJID,YAMAA-01-104,RACE1,Race 1,AMERICAN INDIAN OR ALASKA NATIVE,CRF,
YAMAA-01,DM,YAMAA-01-104,USUBJID,YAMAA-01-104,RACE2,Race 2,WHITE,CRF,
YAMAA-01,DM,YAMAA-01-107,USUBJID,YAMAA-01-107,RACE1,Race 1,ASIAN,CRF,
YAMAA-01,DM,YAMAA-01-107,USUBJID,YAMAA-01-107,RACE2,Race 2,BLACK OR AFRICAN AMERICAN,CRF,
YAMAA-01,DM,YAMAA-01-107,USUBJID,YAMAA-01-107,RACE3,Race 3,WHITE,CRF,
YAMAA-01,DM,YAMAA-01-109,USUBJID,YAMAA-01-109,RACE1,Race 1,ASIAN,CRF,
YAMAA-01,DM,YAMAA-01-109,USUBJID,YAMAA-01-109,RACE2,Race 2,WHITE,CRF,
YAMAA-01,DM,YAMAA-01-112,USUBJID,YAMAA-01-112,RACE1,Race 1,NOT REPORTED,CRF,
YAMAA-01,DM,YAMAA-01-112,USUBJID,YAMAA-01-112,RACE2,Race 2,WHITE,CRF,
