DOMAIN,STUDYID,USUBJID,LBSEQ,LBTESTCD,LBTEST,LBORRES,LBORRESU,LBSTRESN,LBSTRESU,LBDTC
LB,YAMAA-01,YAMAA-01-101,1,CA,Calcium,9.2,mg/dL,9.2,mg/dL,2025-01-01
LB,YAMAA-01,YAMAA-01-102,1,CA,Calcium,10.1,mg/dL,10.1,mg/dL,2025-02-03
LB,YAMAA-01,YAMAA-01-103,1,CA,Calcium,8.4,mg/dL,8.4,mg/dL,2025-03-10
LB,YAMAA-01,YAMAA-01-103,3,CA,Calcium,10.5,mg/dL,10.5,mg/dL,2025-03-17
LB,YAMAA-01,YAMAA-01-101,2,CREAT,Creatinine,0.8,mg/dL,0.8,mg/dL,2025-01-01
LB,YAMAA-01,YAMAA-01-101,3,CREAT,Creatinine,0.9,mg/dL,0.9,mg/dL,2025-01-08
LB,YAMAA-01,YAMAA-01-101,4,CREAT,Creatinine,NOT DONE,mg/dL,,mg/dL,2025-01-15
LB,YAMAA-01,YAMAA-01-102,2,CREAT,Creatinine,1.1,mg/dL,1.1,mg/dL,2025-02-03
LB,YAMAA-01,YAMAA-01-103,2,CREAT,Creatinine,1.3,mg/dL,1.3,mg/dL,2025-03-10
