STUDYID,USUBJID,AVISIT,TRSEQ,TRLNKID,TRGRPID,TRTESTCD,TRSTRESN,TRSTAT
PILOT7,P7-921,BASELINE,1,L1,TARGET,LDIAM,40,
PILOT7,P7-921,BASELINE,2,L2,TARGET,LDIAM,25,
PILOT7,P7-921,BASELINE,3,L3,TARGET,LDIAM,15,
PILOT7,P7-921,WEEK 8,4,L1,TARGET,LDIAM,30,
PILOT7,P7-921,WEEK 8,5,L2,TARGET,LDIAM,20,
PILOT7,P7-921,WEEK 8,6,L3,TARGET,LDIAM,,NOT DONE
PILOT7,P7-922,BASELINE,1,L1,TARGET,LDIAM,22,
PILOT7,P7-922,BASELINE,2,L2,TARGET,LDIAM,18,
PILOT7,P7-922,WEEK 8,3,L1,TARGET,LDIAM,12,
PILOT7,P7-922,WEEK 8,4,L2,TARGET,LDIAM,10,
PILOT7,P7-923,BASELINE,1,L1,NON-TARGET,LDIAM,20,
PILOT7,P7-923,WEEK 8,2,L1,NON-TARGET,LDIAM,22,
