STUDYID,USUBJID,AESEQ,AETERM,AESTDTC
CATH,CATH-UCSD-0001,1,HEADACHE,2025-01-15
CATH,CATH-UCSD-0001,2,NAUSEA,2025-01
CATH,CATH-UCSD-0001,3,ECZEMA FLARE,2025
CATH,CATH-UCSD-0001,4,DIZZINESS,UNKNOWN
CATH,CATH-UCSD-0001,5,FATIGUE,
CATH,CATH-UCSD-0001,6,RASH,2025-02-20
CATH,CATH-UCSD-0002,1,PYREXIA,2025-03
CATH,CATH-UCSD-0002,2,COUGH,2025-02
CATH,CATH-UCSD-0002,3,INSOMNIA,2025-04-05
CATH,CATH-UCSD-0002,4,MIGRAINE,2025-01-05
CATH,CATH-UCSD-0001,7,FLUSHING,2025-01-10
CATH,CATH-UCSD-0003,1,BACK PAIN,2025-04
CATH,CATH-UCSD-0004,1,VOMITING,2025-02
