STUDYID,USUBJID,RDOMAIN,IDVAR,IDVARVAL,RELTYPE,RELID
CATH,CATH-UCSD-0001,AE,AESEQ,1,,1
CATH,CATH-UCSD-0001,CM,CMSEQ,1,,1
CATH,CATH-UCSD-0001,CM,CMSEQ,2,,1
CATH,CATH-UCSD-0001,AE,AESEQ,1,,2
CATH,CATH-UCSD-0001,AE,AESEQ,2,,2
CATH,CATH-UCSD-0001,CM,CMSEQ,2,,2
CATH,CATH-UCSD-0002,AE,AESEQ,1,,1
CATH,CATH-UCSD-0002,CM,CMSEQ,1,,1
