schema_version: "1.0"
domain: ADAE
keys: [STUDYID, USUBJID, AESEQ]
input:
  ADAE_RAW: {path: input/adae_raw.csv, types: {ASTDT: date}}

output:
  path: adae.csv
  columns: [STUDYID, USUBJID, AESEQ, AEBODSYS, AEDECOD, ASTDT, AESEV, TRTEMFL,
            AESEVN, AWSEVFL]

columns:
  - name: STUDYID
    type: str
    label: Study Identifier
    derivation: ADAE_RAW.STUDYID

  - name: USUBJID
    type: str
    label: Unique Subject Identifier
    derivation: ADAE_RAW.USUBJID

  - name: AESEQ
    type: int
    label: Sequence Number
    derivation: ADAE_RAW.AESEQ

  - name: AEBODSYS
    type: str
    label: Body System or Organ Class
    derivation: ADAE_RAW.AEBODSYS

  - name: AEDECOD
    type: str
    label: Dictionary-Derived Term
    derivation: ADAE_RAW.AEDECOD

  - name: ASTDT
    type: date
    label: Analysis Start Date
    derivation: ADAE_RAW.ASTDT

  - name: AESEV
    type: str
    label: Severity/Intensity
    derivation: ADAE_RAW.AESEV
    verifications:
      allowed_values:
        values: [MILD, MODERATE, SEVERE]

  - name: TRTEMFL
    type: str
    label: Treatment Emergent Analysis Flag
    derivation: ADAE_RAW.TRTEMFL
    verifications:
      allowed_values:
        values: [Y]

  - name: AESEVN
    type: int
    label: Severity/Intensity (N)
    derivation:
      mapping:
        source: AESEV
        dict:
          MILD: 1
          MODERATE: 2
          SEVERE: 3
        missing: null
    verifications:
      range:
        min: 1
        max: 3

  # Ranks the subject's treatment-emergent, graded events within each
  # preferred term: worst severity first, then earliest start date, then
  # lowest sequence number. Any other event gets no rank.
  - name: AWSRNK
    type: int
    label: Worst Severity Rank
    derivation:
      row_number:
        window:
          group_by: [STUDYID, USUBJID, AEDECOD]
          order_by:
            - {variable: AESEVN, direction: desc}
            - ASTDT
            - AESEQ
          filter: "TRTEMFL = 'Y' AND AESEVN IS NOT NULL"

  - name: AWSEVFL
    type: str
    label: Worst Severity Flag
    derivation:
      flag: "AWSRNK = 1"

verifications:
  - unique:
      columns: [STUDYID, USUBJID, AESEQ]
  - row_count:
      min: 12
      max: 12
  - implies:
      id: worst-severity-flag-requires-graded-treatment-emergent-event
      when: "AWSEVFL = 'Y'"
      then: "TRTEMFL = 'Y' AND AESEVN IS NOT NULL"
