STUDYID,USUBJID,AESEQ,AETERM,AESTDTC,AESEV
PILOT7,P7-501,1,Nausea,2025-03-10,MILD
PILOT7,P7-501,2,Pneumonitis,2025-02-01,SEVERE
PILOT7,P7-501,3,Rash,,MODERATE
PILOT7,P7-501,4,Colitis,2025-01-15,MODERATE
PILOT7,P7-501,5,Sepsis,2025-02-01,SEVERE
PILOT7,P7-501,6,Cough,2025-01-20,
PILOT7,P7-502,1,Headache,2025-04-02,MILD
PILOT7,P7-501,7,Myocarditis,,SEVERE
PILOT7,P7-501,8,Diarrhea,2025-01-15,MODERATE
PILOT7,P7-501,9,Hypotension,2025-02-01,SEVERE
PILOT7,P7-502,2,Fatigue,2025-04-10,
