"STUDYID","DOMAIN","USUBJID","AESEQ","AETERM","AEDECOD","AEBODSYS","AESEV","AESER","AEREL","AEACN","AEOUT","AETOXGR","AESTDTC","AESTDY"
"ST.NCT00789880","AE","CATH-UCSD-0065",1,"Procedural pain","PROCEDURAL PAIN","Injury, poisoning and procedural complications","MILD","N","UNRELATED","DOSE NOT CHANGED","RECOVERED","1","2010-10-09",24
"ST.NCT00789880","AE","CATH-UCSD-0081",1,"Procedural pain","PROCEDURAL PAIN","Injury, poisoning and procedural complications","MILD","N","UNRELATED","DOSE NOT CHANGED","RECOVERED","1","2011-02-10",1
