DOMAIN,STUDYID,USUBJID,ARMCD,ARM,ACTARMCD,ACTARM,ARMNRS,ACTARMUD
DM,STUDY01,001,PBO,Placebo,PBO,Placebo,,
DM,STUDY01,002,TRT,Vitamin D3,PBO,Placebo,,
DM,STUDY01,003,TRT,Vitamin D3,,,NOT TREATED,
DM,STUDY01,004,,,,,SCREEN FAILURE,
DM,STUDY01,005,,,,,NOT ASSIGNED,
DM,STUDY01,006,PBO,Placebo,,,,RESCUE MEDICATION
