STUDYID,USUBJID,AESEQ,AEDECOD,AESER
YAMAA-01,YAMAA-01-101,1,HEADACHE,Y
YAMAA-01,YAMAA-01-101,2,COUGH,N
YAMAA-01,YAMAA-01-101,3,NAUSEA,Y
YAMAA-01,YAMAA-01-102,1,DIZZINESS,N
YAMAA-01,YAMAA-01-102,2,FEVER,Y
YAMAA-01,YAMAA-01-103,1,BACK PAIN,N
YAMAA-01,YAMAA-01-103,2,INFLUENZA,N
YAMAA-01,YAMAA-01-104,1,CHEST PAIN,Y
YAMAA-01,YAMAA-01-105,1,RUNNY NOSE,
