DOMAIN,STUDYID,USUBJID,AESEQ,AELLT,AELLTCD,AEDECOD,AEPTCD,AEHLT,AEHLTCD,AEHLGT,AEHLGTCD,AEBODSYS,AEBODSCD
AE,STUDY01,001,1,Braxalgia,90000001,Braxalgia disorder,91000001,Braxalgia signs,92000001,Cephalic complaints,93000001,Nervax disorders,94000001
AE,STUDY01,001,2,Dermabraxia,90000002,Dermabraxia eruption,91000002,Cutaneous signs,92000002,Skin complaints,93000002,Dermax disorders,94000002
AE,STUDY01,002,1,Qualmia,90000003,Qualmia episodes,91000003,Systemic signs,92000003,General complaints,93000003,Immunoax disorders,94000003
AE,STUDY01,002,2,NOT CODED,99999999,NOT CODED,NOT CODED,NOT CODED,NOT CODED,NOT CODED,NOT CODED,NOT CODED,NOT CODED
AE,STUDY01,003,1,NOT CODED,,NOT CODED,NOT CODED,NOT CODED,NOT CODED,NOT CODED,NOT CODED,NOT CODED,NOT CODED
