STUDYID,USUBJID,PARAMCD,LBSEQ,ADT,ADY,AVAL,AVISIT,AWTARGET,DIST0,ADIST,NEGADY,ARNK,ANL01FL
CATH,CATH-UCSD-0001,ALT,1,2025-01-17,10,22,WEEK 2,15,-5,5,-10,2,
CATH,CATH-UCSD-0001,ALT,2,2025-01-27,20,26,WEEK 2,15,5,5,-20,1,Y
CATH,CATH-UCSD-0001,ALT,3,2025-02-06,30,24,,,,,,1,
CATH,CATH-UCSD-0002,ALT,1,2025-02-19,12,31,WEEK 2,15,-3,3,-12,2,
CATH,CATH-UCSD-0002,ALT,2,2025-02-23,16,29,WEEK 2,15,1,1,-16,1,Y
CATH,CATH-UCSD-0003,ALT,1,2025-03-15,8,18,WEEK 2,15,-7,7,-8,1,Y
