DOMAIN,STUDYID,USUBJID,PRSEQ,PRTRT,PRCAT,PRPRESP,PROCCUR,PRLOC,PRLAT,PRDOSE,PRDOSU,PRSTDTC,PRENDTC
PR,YAMAA-01,YAMAA-01-001,1,LUMPECTOMY,PRIOR CANCER SURGERY,,,BREAST,LEFT,,,2023-11,
PR,YAMAA-01,YAMAA-01-001,2,RADIOTHERAPY,PRIOR RADIOTHERAPY,Y,Y,,,50,Gy,2024-02-10,2024-03-20
PR,YAMAA-01,YAMAA-01-002,1,RADIOTHERAPY,PRIOR RADIOTHERAPY,Y,N,,,,,,
