schema_version: "1.0"
domain: ADQS
keys: [STUDYID, USUBJID, VISIT, PARAMCD]
input:
  QS: {path: input/qs.csv, types: {QSSTRESN: float}}

output:
  path: adqs.csv
  columns: [STUDYID, USUBJID, VISIT, PARAMCD, PARAM, AVAL]

columns:
  - name: STUDYID
    type: str
    label: Study Identifier
    derivation: QS.STUDYID

  - name: USUBJID
    type: str
    label: Unique Subject Identifier
    derivation: QS.USUBJID

  - name: VISIT
    type: str
    label: Visit Name
    derivation: QS.VISIT

  - name: PARAMCD
    type: str
    label: Parameter Code
    verifications:
      - allowed_values:
          values: [PF01, PF02, PF03, PF04, PFSCORE]

  - name: PARAM
    type: str
    label: Parameter

  # The item's numeric response, empty on the score row. It is not in the
  # output.
  - name: ITEMRESN
    type: float
    label: Numeric Item Response

  # Sum and count of the answered items at the subject's visit, repeated on
  # every row of it. The score row's empty ITEMRESN adds nothing to either.
  - name: ITEMSUM
    type: float
    label: Sum of Item Responses
    derivation:
      aggregate:
        expr: "SUM(ITEMRESN)"
        group_by: [STUDYID, USUBJID, VISIT]

  - name: ITEMANS
    type: int
    label: Number of Answered Items
    derivation:
      aggregate:
        expr: "COUNT(ITEMRESN)"
        group_by: [STUDYID, USUBJID, VISIT]

  # The score is the mean answered response times 25 (a 0 to 100 scale),
  # empty with fewer than three items answered. An item row keeps its
  # response.
  - name: AVAL
    type: float
    label: Analysis Value
    derivation:
      case:
        - when: "PARAMCD = 'PFSCORE' AND ITEMANS >= 3"
          then:
            compute:
              expr: "100 * (ITEMSUM / ITEMANS) / 4"
        - when: "PARAMCD = 'PFSCORE'"
          then: {literal: null}
        - otherwise: ITEMRESN
    verifications:
      - range:
          min: 0
          max: 100

rows:
  # Every physical functioning item record, answered or not.
  - id: item
    filter: "QS.QSCAT = 'PHYSICAL FUNCTIONING SCALE'"
    derivations:
      PARAMCD: QS.QSTESTCD
      PARAM: QS.QSTEST
      ITEMRESN: QS.QSSTRESN

  # One score row per subject and visit, built from the visit's PF01 record
  # whether or not it was answered; a visit with no PF01 record gets none.
  - id: subscale
    filter: "QS.QSCAT = 'PHYSICAL FUNCTIONING SCALE' AND QS.QSTESTCD = 'PF01'"
    derivations:
      PARAMCD: {literal: PFSCORE}
      PARAM: {literal: Physical Functioning Subscale Score}
      ITEMRESN: {literal: null}

verifications:
  - unique:
      columns: [STUDYID, USUBJID, VISIT, PARAMCD]
  - row_count:
      min: 25
      max: 25
  - implies:
      id: subscale-score-rests-on-three-answered-items
      when: "PARAMCD = 'PFSCORE' AND AVAL IS NOT NULL"
      then: "ITEMANS >= 3"
  - implies:
      id: an-item-response-stays-within-the-answer-range
      when: "PARAMCD IN ('PF01', 'PF02', 'PF03', 'PF04')"
      then: "AVAL IS NULL OR AVAL BETWEEN 0 AND 4"
