POPFL,SAFFL,ITTFL,RANDFL,TRTSDT,RANDDT,AGEGR1,AGERNK,STUDYID,USUBJID,AGE
Y,Y,Y,Y,2025-01-08,2025-01-05,<65,1,CATH,CATH-UCSD-0001,34
Y,Y,Y,Y,2025-02-08,2025-02-05,>=65,3,CATH,CATH-UCSD-0002,67
N,N,N,N,,,<65,2,CATH,CATH-UCSD-0003,52
