DOMAIN,STUDYID,USUBJID,VSSEQ,VISIT,VSTESTCD,VSTEST,VSREPNUM,VSORRES,VSORRESU,VSSTRESN,VSSTRESC,VSDRVFL
VS,YAMAA-01,YAMAA-01-001,1,VISIT 1,DIABP,Diastolic Blood Pressure,1,80,mmHg,80,80,
VS,YAMAA-01,YAMAA-01-001,2,VISIT 1,DIABP,Diastolic Blood Pressure,2,78,mmHg,78,78,
VS,YAMAA-01,YAMAA-01-001,3,VISIT 1,DIABP,Diastolic Blood Pressure,3,82,mmHg,82,82,
VS,YAMAA-01,YAMAA-01-001,4,VISIT 1,DIABP,Diastolic Blood Pressure,,80,mmHg,80,80,Y
VS,YAMAA-01,YAMAA-01-001,5,VISIT 1,SYSBP,Systolic Blood Pressure,1,120,mmHg,120,120,
VS,YAMAA-01,YAMAA-01-001,6,VISIT 1,SYSBP,Systolic Blood Pressure,2,122,mmHg,122,122,
VS,YAMAA-01,YAMAA-01-001,7,VISIT 1,SYSBP,Systolic Blood Pressure,3,118,mmHg,118,118,
VS,YAMAA-01,YAMAA-01-001,8,VISIT 1,SYSBP,Systolic Blood Pressure,,120,mmHg,120,120,Y
VS,YAMAA-01,YAMAA-01-001,9,VISIT 2,DIABP,Diastolic Blood Pressure,1,76,mmHg,76,76,
VS,YAMAA-01,YAMAA-01-001,10,VISIT 2,DIABP,Diastolic Blood Pressure,2,78,mmHg,78,78,
VS,YAMAA-01,YAMAA-01-001,11,VISIT 2,DIABP,Diastolic Blood Pressure,3,74,mmHg,74,74,
VS,YAMAA-01,YAMAA-01-001,12,VISIT 2,DIABP,Diastolic Blood Pressure,,76,mmHg,76,76,Y
VS,YAMAA-01,YAMAA-01-001,13,VISIT 2,SYSBP,Systolic Blood Pressure,1,116,mmHg,116,116,
VS,YAMAA-01,YAMAA-01-001,14,VISIT 2,SYSBP,Systolic Blood Pressure,2,114,mmHg,114,114,
VS,YAMAA-01,YAMAA-01-001,15,VISIT 2,SYSBP,Systolic Blood Pressure,3,118,mmHg,118,118,
VS,YAMAA-01,YAMAA-01-001,16,VISIT 2,SYSBP,Systolic Blood Pressure,,116,mmHg,116,116,Y
VS,YAMAA-01,YAMAA-01-002,1,VISIT 1,DIABP,Diastolic Blood Pressure,1,86,mmHg,86,86,
VS,YAMAA-01,YAMAA-01-002,2,VISIT 1,DIABP,Diastolic Blood Pressure,2,84,mmHg,84,84,
VS,YAMAA-01,YAMAA-01-002,3,VISIT 1,DIABP,Diastolic Blood Pressure,3,88,mmHg,88,88,
VS,YAMAA-01,YAMAA-01-002,4,VISIT 1,DIABP,Diastolic Blood Pressure,,86,mmHg,86,86,Y
VS,YAMAA-01,YAMAA-01-002,5,VISIT 1,SYSBP,Systolic Blood Pressure,1,130,mmHg,130,130,
VS,YAMAA-01,YAMAA-01-002,6,VISIT 1,SYSBP,Systolic Blood Pressure,2,132,mmHg,132,132,
VS,YAMAA-01,YAMAA-01-002,7,VISIT 1,SYSBP,Systolic Blood Pressure,3,128,mmHg,128,128,
VS,YAMAA-01,YAMAA-01-002,8,VISIT 1,SYSBP,Systolic Blood Pressure,,130,mmHg,130,130,Y
VS,YAMAA-01,YAMAA-01-002,9,VISIT 2,DIABP,Diastolic Blood Pressure,1,82,mmHg,82,82,
VS,YAMAA-01,YAMAA-01-002,10,VISIT 2,DIABP,Diastolic Blood Pressure,2,80,mmHg,80,80,
VS,YAMAA-01,YAMAA-01-002,11,VISIT 2,DIABP,Diastolic Blood Pressure,3,84,mmHg,84,84,
VS,YAMAA-01,YAMAA-01-002,12,VISIT 2,DIABP,Diastolic Blood Pressure,,82,mmHg,82,82,Y
VS,YAMAA-01,YAMAA-01-002,13,VISIT 2,SYSBP,Systolic Blood Pressure,1,124,mmHg,124,124,
VS,YAMAA-01,YAMAA-01-002,14,VISIT 2,SYSBP,Systolic Blood Pressure,2,126,mmHg,126,126,
VS,YAMAA-01,YAMAA-01-002,15,VISIT 2,SYSBP,Systolic Blood Pressure,,125,mmHg,125,125,Y
