STUDYID,USUBJID,VSSEQ,VISIT,VSTESTCD,VSORRES,VSDTC
CATH,CATH-UCSD-0001,1,SCREENING,SYSBP,128,2025-01-02
CATH,CATH-UCSD-0001,2,BASELINE,SYSBP,132,2025-01-08
CATH,CATH-UCSD-0001,3,UNSCHEDULED,SYSBP,145,2025-01-15
CATH,CATH-UCSD-0001,4,WEEK 4,SYSBP,130,2025-02-05
CATH,CATH-UCSD-0002,1,BASELINE,SYSBP,118,2025-02-08
CATH,CATH-UCSD-0002,2,WEEK 4,SYSBP,122,
CATH,SUBJECT-0003,1,BASELINE,SYSBP,124,2025-03-01
