STUDYID,USUBJID,PARAMCD,PARAM,STARTDT,ADT,AVAL,CNSR,EVNTDESC,SRCDOM,SRCVAR,SRCSEQ
YAMAA-01,YAMAA-01-101,PFS,Progression-Free Survival,2026-01-01,2026-02-19,50,0,DISEASE PROGRESSION,RS,RSDTC,2
YAMAA-01,YAMAA-01-102,PFS,Progression-Free Survival,2026-01-01,2026-01-30,30,0,DEATH,DS,DSDTC,1
YAMAA-01,YAMAA-01-103,PFS,Progression-Free Survival,2026-02-01,2026-03-14,42,1,CENSORED,RS,RSDTC,2
YAMAA-01,YAMAA-01-104,PFS,Progression-Free Survival,2026-01-15,2026-02-05,22,1,CENSORED,RS,RSDTC,2
YAMAA-01,YAMAA-01-105,PFS,Progression-Free Survival,2026-03-01,2026-03-01,1,1,CENSORED,RS,RSDTC,1
YAMAA-01,YAMAA-01-106,PFS,Progression-Free Survival,2026-01-01,2026-03-15,74,0,DISEASE PROGRESSION,RS,RSDTC,2
YAMAA-01,YAMAA-01-107,PFS,Progression-Free Survival,2026-01-01,2026-04-01,91,0,DISEASE PROGRESSION,RS,RSDTC,2
YAMAA-01,YAMAA-01-108,PFS,Progression-Free Survival,2026-02-01,2026-05-01,90,0,DEATH,DS,DSDTC,1
YAMAA-01,YAMAA-01-109,PFS,Progression-Free Survival,2026-04-01,2026-04-15,15,1,CENSORED,RS,RSDTC,1
YAMAA-01,YAMAA-01-110,PFS,Progression-Free Survival,2026-01-01,2026-03-01,60,1,CENSORED,RS,RSDTC,2
YAMAA-01,YAMAA-01-111,PFS,Progression-Free Survival,2026-05-01,2026-05-01,1,1,CENSORED,,,
YAMAA-01,YAMAA-01-112,PFS,Progression-Free Survival,2026-01-01,2026-01-10,10,1,CENSORED,RS,RSDTC,1
