DOMAIN,STUDYID,USUBJID,LBSEQ,LBTESTCD,LBTEST,LBORRES,LBORRESU,LBSTRESN,LBSTRESU,LBDTC
LB,STUDY01,001,2,GLUC,Glucose,95,mg/dL,95,mg/dL,2025-01-01
LB,STUDY01,002,1,GLUC,Glucose,101,mg/dL,101,mg/dL,2025-01-02
LB,STUDY01,001,1,CREAT,Creatinine,0.9,mg/dL,0.9,mg/dL,2025-01-01
