STUDYID,USUBJID,TRT01A,TRTSDT,TRTSDTM,TRTSTMF,TRTEDT,TRTEDTM,TRTETMF,TRTDURD,SAFFL
CATH,CATH-UCSD-0001,VITAMIN D3,2025-01-08,2025-01-08T00:00:00,H,2025-01-28,2025-01-28T23:59:59,H,21,Y
CATH,CATH-UCSD-0002,PLACEBO,2025-02-08,2025-02-08T09:00:00,,2025-02-28,2025-02-28T17:00:00,,21,Y
CATH,SUBJECT-0003,VITAMIN D3,,,,,,,,N
CATH,CATH-UCSD-0004,NOT TREATED,,,,,,,,N
