STUDYID,USUBJID,PARAMCD,PARAM,STARTDT,ADT,AVAL,CNSR,EVNTDESC,CNSDTDSC,SRCDOM,SRCVAR,SRCSEQ
YAMAA-01,YAMAA-01-101,TTDGHS,Time to Deterioration in Global Health Status,2026-01-15,2026-05-07,3,0,PRO DETERIORATION,,QS,ADT,3
YAMAA-01,YAMAA-01-102,TTDGHS,Time to Deterioration in Global Health Status,2026-01-15,2026-06-10,4,0,DEATH,,ADSL,DTHDT,
YAMAA-01,YAMAA-01-103,TTDGHS,Time to Deterioration in Global Health Status,2026-01-15,2026-03-12,1,1,CENSORED,DISEASE PROGRESSION,QS,ADT,2
YAMAA-01,YAMAA-01-104,TTDGHS,Time to Deterioration in Global Health Status,2026-01-15,2026-05-07,3,1,CENSORED,WITHDRAWAL OF CONSENT,QS,ADT,3
YAMAA-01,YAMAA-01-105,TTDGHS,Time to Deterioration in Global Health Status,2026-01-15,2026-01-15,0,1,CENSORED,STUDY DISCONTINUATION,QS,ADT,1
YAMAA-01,YAMAA-01-106,TTDGHS,Time to Deterioration in Global Health Status,2026-01-15,2026-03-12,1,0,PRO DETERIORATION,,QS,ADT,2
