STUDYID,USUBJID,MHSEQ,MHTERM,MHSTDTC,MHENDTC,MHENRTPT,MHENTPT
YAMAA-01,YAMAA-01-1001,1,HYPERTENSION,2015,,ONGOING,SCREENING
YAMAA-01,YAMAA-01-1001,2,HYPERLIPIDEMIA,2019-03,2020-11-30,BEFORE,SCREENING
YAMAA-01,YAMAA-01-1002,1,ASTHMA,2017-06,,,
YAMAA-01,YAMAA-01-1002,2,ECZEMA,2020,2022-02-14,BEFORE,SCREENING
YAMAA-01,YAMAA-01-1003,1,MIGRAINE,2018-11,,ONGOING,SCREENING
YAMAA-01,YAMAA-01-1003,2,TYPE 2 DIABETES MELLITUS,,,,
YAMAA-01,YAMAA-01-1004,1,GOUT,2019-05,2021-07-15,,
