STUDYID,USUBJID,AESEQ,AETERM,AESTDTC
PILOT7,P7-101,1,CHILLS,2025-03-04T07:15:00
PILOT7,P7-101,2,HEADACHE,2025-03-04T11:45
PILOT7,P7-101,3,NAUSEA,2025-03-06T22:30:00
PILOT7,P7-101,4,VOMITING,2025-03-04T11:45:00
PILOT7,P7-102,1,RASH,2025-03-05T09:00:00
PILOT7,P7-102,2,PRURITUS,
PILOT7,P7-103,1,FATIGUE,2025-03-07T13:05:00
