DOMAIN,STUDYID,USUBJID,FASEQ,FATESTCD,FATEST,FACAT,FASCAT,FAOBJ,FAORRES,FASTRESC,VSSTRESN
FA,PROJ1,SUBJ1,1,OCCUR,Occurrence Indicator,REACTOGENICITY,SYSTEMIC,FEVER,Y,Y,38.5
FA,PROJ1,SUBJ1,2,OCCUR,Occurrence Indicator,REACTOGENICITY,SYSTEMIC,FEVER,N,N,37.5
FA,PROJ1,SUBJ1,3,OCCUR,Occurrence Indicator,REACTOGENICITY,SYSTEMIC,FEVER,,,
