schema_version: "1.0"
domain: DM
keys: [STUDYID, USUBJID]
input:
  DM_RAW: input/dm_raw.csv
  DS: input/ds.csv
  AE: input/ae.csv
base: DM_RAW

output:
  path: dm.csv
  columns: [DOMAIN, STUDYID, USUBJID, DTHDTC, DTHFL]

intermediates:
  # Per subject: the latest death disposition record and the latest fatal
  # adverse event. An undated record cannot supply a death date.
  - id: DTHDS
    dataset: DS
    filter: "DS.DSDECOD = 'DEATH' AND DS.DSSTDTC IS NOT NULL"
    order_by: [DS.DSSTDTC]
    keep: last
    no_match: null

  - id: DTHAE
    dataset: AE
    filter: "AE.AEOUT = 'FATAL' AND AE.AEENDTC IS NOT NULL"
    order_by: [AE.AEENDTC]
    keep: last
    no_match: null

columns:
  - name: DOMAIN
    type: str
    label: Domain Abbreviation
    derivation: {literal: DM}

  - name: STUDYID
    type: str
    label: Study Identifier
    derivation: DM_RAW.STUDYID

  - name: USUBJID
    type: str
    label: Unique Subject Identifier
    derivation: DM_RAW.USUBJID

  # Each source's death date as a date: DS and AE hold dates as text.
  - name: DSDTHDT
    type: date
    label: Death Date from Disposition
    derivation: DTHDS.DSSTDTC

  - name: AEDTHDT
    type: date
    label: Death Date from Fatal Adverse Event
    derivation: DTHAE.AEENDTC

  - name: DTHDTC
    type: date
    label: Date/Time of Death
    derivation:
      first_available:
        sources: [DSDTHDT, AEDTHDT]

  - name: DTHFL
    type: str
    label: Subject Death Flag
    derivation:
      flag: "DSDTHDT IS NOT NULL OR AEDTHDT IS NOT NULL"
    verifications:
      allowed_values:
        values: [Y]

verifications:
  - unique:
      columns: [STUDYID, USUBJID]
  - row_count:
      min: 5
      max: 5
  - assert:
      id: death-date-marks-flag
      when: "DTHDTC IS NOT NULL"
      require: "DTHFL = 'Y'"
  - assert:
      id: flag-needs-date
      when: "DTHFL = 'Y'"
      require: "DTHDTC IS NOT NULL"
