STUDYID,USUBJID,DSSEQ,DSCAT,DSDECOD,DSTERM,DSSTDTC
YAMAA-01,YAMAA-01-101,1,PROTOCOL MILESTONE,RANDOMIZED,RANDOMIZED,2024-03-04
YAMAA-01,YAMAA-01-101,2,DISPOSITION EVENT,COMPLETED,COMPLETED STUDY,2024-11-18
YAMAA-01,YAMAA-01-102,1,PROTOCOL MILESTONE,RANDOMIZED,RANDOMIZED,2024-03-06
YAMAA-01,YAMAA-01-102,2,DISPOSITION EVENT,DISCONTINUED,WITHDRAWAL BY SUBJECT,2024-08-30
YAMAA-01,YAMAA-01-102,3,DISPOSITION EVENT,DISCONTINUED,ADVERSE EVENT,2024-08-30
YAMAA-01,YAMAA-01-102,4,DISPOSITION EVENT,DISCONTINUED,LOST TO FOLLOW-UP,
YAMAA-01,YAMAA-01-104,1,DISPOSITION EVENT,SCREEN FAILURE,ELIGIBILITY CRITERIA NOT MET,2024-02-15
YAMAA-01,YAMAA-01-105,1,PROTOCOL MILESTONE,RANDOMIZED,RANDOMIZED,2024-04-01
YAMAA-01,YAMAA-01-105,2,DISPOSITION EVENT,DEATH,DEATH,2024-09-27
YAMAA-01,YAMAA-01-106,1,DISPOSITION EVENT,DISCONTINUED,SUBJECT RELOCATED,
