DOMAIN,STUDYID,USUBJID,VSSEQ,VISIT,VSTESTCD,VSTEST,VSORRES,VSORRESU,VSSTRESN,VSSTRESC,VSSTRESU,VSPOS,VSMETHOD,VSSTAT,VSREASND,VSDTC
VS,YAMAA-01,YAMAA-01-101,1,SCREENING,SYSBP,Systolic Blood Pressure,118,mmHg,118,118,mmHg,SITTING,,,,2026-01-05
VS,YAMAA-01,YAMAA-01-101,7,WEEK 4,SYSBP,Systolic Blood Pressure,,,,,,,,NOT DONE,SUBJECT DECLINED,2026-02-02
VS,YAMAA-01,YAMAA-01-102,1,SCREENING,SYSBP,Systolic Blood Pressure,124,mmHg,124,124,mmHg,SITTING,,,,2026-01-06
VS,YAMAA-01,YAMAA-01-102,7,WEEK 4,SYSBP,Systolic Blood Pressure,120,mmHg,120,120,mmHg,SITTING,,,,2026-02-03
VS,YAMAA-01,YAMAA-01-101,2,SCREENING,DIABP,Diastolic Blood Pressure,76,mmHg,76,76,mmHg,SITTING,,,,2026-01-05
VS,YAMAA-01,YAMAA-01-101,8,WEEK 4,DIABP,Diastolic Blood Pressure,,,,,,,,NOT DONE,SUBJECT DECLINED,2026-02-02
VS,YAMAA-01,YAMAA-01-102,2,SCREENING,DIABP,Diastolic Blood Pressure,80,mmHg,80,80,mmHg,SITTING,,,,2026-01-06
VS,YAMAA-01,YAMAA-01-102,8,WEEK 4,DIABP,Diastolic Blood Pressure,78,mmHg,78,78,mmHg,SITTING,,,,2026-02-03
VS,YAMAA-01,YAMAA-01-101,3,SCREENING,PULSE,Pulse Rate,68,beats/min,68,68,beats/min,SITTING,,,,2026-01-05
VS,YAMAA-01,YAMAA-01-101,9,WEEK 4,PULSE,Pulse Rate,72,beats/min,72,72,beats/min,SITTING,,,,2026-02-02
VS,YAMAA-01,YAMAA-01-102,3,SCREENING,PULSE,Pulse Rate,71,beats/min,71,71,beats/min,SITTING,,,,2026-01-06
VS,YAMAA-01,YAMAA-01-102,9,WEEK 4,PULSE,Pulse Rate,69,beats/min,69,69,beats/min,SITTING,,,,2026-02-03
VS,YAMAA-01,YAMAA-01-101,4,SCREENING,RESP,Respiratory Rate,14,breaths/min,14,14,breaths/min,,,,,2026-01-05
VS,YAMAA-01,YAMAA-01-101,10,WEEK 4,RESP,Respiratory Rate,16,breaths/min,16,16,breaths/min,,,,,2026-02-02
VS,YAMAA-01,YAMAA-01-102,4,SCREENING,RESP,Respiratory Rate,15,breaths/min,15,15,breaths/min,,,,,2026-01-06
VS,YAMAA-01,YAMAA-01-102,10,WEEK 4,RESP,Respiratory Rate,14,breaths/min,14,14,breaths/min,,,,,2026-02-03
VS,YAMAA-01,YAMAA-01-101,5,SCREENING,TEMP,Temperature,36.6,C,36.6,36.6,C,,ORAL,,,2026-01-05
VS,YAMAA-01,YAMAA-01-101,11,WEEK 4,TEMP,Temperature,36.8,C,36.8,36.8,C,,ORAL,,,2026-02-02
VS,YAMAA-01,YAMAA-01-102,5,SCREENING,TEMP,Temperature,36.9,C,36.9,36.9,C,,ORAL,,,2026-01-06
VS,YAMAA-01,YAMAA-01-102,11,WEEK 4,TEMP,Temperature,36.7,C,36.7,36.7,C,,ORAL,,,2026-02-03
VS,YAMAA-01,YAMAA-01-101,6,SCREENING,WEIGHT,Weight,70.2,kg,70.2,70.2,kg,,,,,2026-01-05
VS,YAMAA-01,YAMAA-01-101,12,WEEK 4,WEIGHT,Weight,70.5,kg,70.5,70.5,kg,,,,,2026-02-02
VS,YAMAA-01,YAMAA-01-102,6,SCREENING,WEIGHT,Weight,82.4,kg,82.4,82.4,kg,,,,,2026-01-06
VS,YAMAA-01,YAMAA-01-102,12,WEEK 4,WEIGHT,Weight,81.6,kg,81.6,81.6,kg,,,,,2026-02-03
