STUDYID,USUBJID,CMSEQ,CMTRT,ASTDT,AENDT,TRTSDT,TRTEDT,ONTRTFL
YAMAA-01,YAMAA-01-101,1,Ibuprofen,2023-02-20,2023-02-28,2023-03-01,2023-06-30,
YAMAA-01,YAMAA-01-101,2,Acetaminophen,2023-02-25,2023-03-01,2023-03-01,2023-06-30,Y
YAMAA-01,YAMAA-01-101,3,Metformin,2023-03-01,2023-06-30,2023-03-01,2023-06-30,Y
YAMAA-01,YAMAA-01-101,4,Lisinopril,2023-04-10,2023-04-24,2023-03-01,2023-06-30,Y
YAMAA-01,YAMAA-01-101,5,Omeprazole,2023-06-30,2023-07-15,2023-03-01,2023-06-30,Y
YAMAA-01,YAMAA-01-101,6,Atorvastatin,2023-07-01,,2023-03-01,2023-06-30,
YAMAA-01,YAMAA-01-101,7,Alendronate,2023-05-01,,2023-03-01,2023-06-30,Y
YAMAA-01,YAMAA-01-101,8,Calcium carbonate,,,2023-03-01,2023-06-30,Y
YAMAA-01,YAMAA-01-101,9,Aspirin,,2023-02-15,2023-03-01,2023-06-30,
YAMAA-01,YAMAA-01-102,1,Gabapentin,2023-04-01,2023-04-15,,,
YAMAA-01,YAMAA-01-103,1,Sertraline,2023-04-01,2023-05-10,2023-05-15,,
YAMAA-01,YAMAA-01-103,2,Levothyroxine,2023-05-20,,2023-05-15,,Y
YAMAA-01,YAMAA-01-103,3,Vitamin D,,2023-06-01,2023-05-15,,Y
