STUDYID,USUBJID,AESEQ,AEDECOD,AESEV,AESTDTC,SEV_RANK,SEV_SEQ
YAMAA-01,001,1,HEADACHE,MILD,2024-01-02,3,3
YAMAA-01,001,2,NAUSEA,SEVERE,2024-01-05,1,1
YAMAA-01,001,3,FATIGUE,MODERATE,2024-01-03,2,2
YAMAA-01,002,1,HEADACHE,SEVERE,2024-02-01,1,1
YAMAA-01,002,2,NAUSEA,SEVERE,2024-02-01,1,2
YAMAA-01,002,3,FATIGUE,MILD,2024-02-02,3,3
YAMAA-01,003,1,HEADACHE,MODERATE,2024-03-01,3,3
YAMAA-01,003,2,NAUSEA,MODERATE,2024-03-05,2,2
YAMAA-01,003,3,DIZZINESS,SEVERE,2024-03-01,1,1
