DOMAIN,STUDYID,USUBJID,ECSEQ,ECTRT,ECOCCUR,ECREASND,ECDOSE,ECDOSU,ECDOSFRM,ECDOSFRQ,ECROUTE,ECSTDTC,ECENDTC,ECADJ
EC,YAMAA-01,YAMAA-01-001,1,Study Drug,Y,,2,tablet,TABLET,QD,ORAL,2025-01-02,2025-01-02,
EC,YAMAA-01,YAMAA-01-001,2,Study Drug,Y,,2,tablet,TABLET,QD,ORAL,2025-01-03,2025-01-03,
EC,YAMAA-01,YAMAA-01-001,3,Study Drug,Y,,2,tablet,TABLET,QD,ORAL,2025-01-04,2025-01-04,
EC,YAMAA-01,YAMAA-01-001,4,Study Drug,N,SUBJECT FORGOT DOSE,,tablet,TABLET,QD,ORAL,2025-01-05,2025-01-05,
EC,YAMAA-01,YAMAA-01-001,5,Study Drug,Y,,2,tablet,TABLET,QD,ORAL,2025-01-06,2025-01-06,
EC,YAMAA-01,YAMAA-01-002,1,Study Drug,Y,,2,tablet,TABLET,QD,ORAL,2025-01-02,2025-01-02,
EC,YAMAA-01,YAMAA-01-002,2,Study Drug,Y,,2,tablet,TABLET,QD,ORAL,2025-01-03,2025-01-03,
EC,YAMAA-01,YAMAA-01-002,3,Study Drug,Y,,1,tablet,TABLET,QD,ORAL,2025-01-04,2025-01-04,DOSE REDUCED
EC,YAMAA-01,YAMAA-01-002,4,Study Drug,Y,,1,tablet,TABLET,QD,ORAL,2025-01-05,2025-01-05,DOSE REDUCED
EC,YAMAA-01,YAMAA-01-002,5,Study Drug,Y,,1,tablet,TABLET,QD,ORAL,2025-01-06,2025-01-06,DOSE REDUCED
