schema_version: "1.0"
domain: ADSL
keys: [STUDYID, USUBJID]
input:
  DM: input/dm.csv
  DS: {path: input/ds.csv, types: {DSSEQ: int, DSSTDY: int, DSVALUE: float}}
base: DM

output:
  path: adsl.csv
  columns: [STUDYID, USUBJID, DSDECOD, DSVALUE, EOT_FALLBACK]

intermediates:
  # Each subject's DS records (no key: it matches on the output keys),
  # ranked by study day with the sequence number, scaled down by 1000,
  # breaking a tie within a day. The filter and order_by read the derived
  # rank qualified with DS, like a DS field. A record with no study day
  # has a missing rank and is never chosen; the smallest rank is kept.
  - id: EOT
    dataset: DS
    filter: "DS.EOT_FALLBACK IS NOT NULL"
    order_by: [DS.EOT_FALLBACK]
    keep: first
    columns: [DSDECOD, DSVALUE, EOT_FALLBACK]
    no_match: null
    derivations:
      EOT_FALLBACK:
        compute:
          expr: "DSSTDY + DSSEQ / 1000"

columns:
  - name: STUDYID
    type: str
    label: Study Identifier
    derivation: DM.STUDYID

  - name: USUBJID
    type: str
    label: Unique Subject Identifier
    derivation: DM.USUBJID

  - name: DSDECOD
    type: str
    label: Selected Disposition Term
    derivation: EOT.DSDECOD

  - name: DSVALUE
    type: float
    label: Selected Numeric Value
    derivation: EOT.DSVALUE

  - name: EOT_FALLBACK
    type: float
    label: Selected Derived Rank
    derivation: EOT.EOT_FALLBACK
