{
  "protocol": "dataset/1",
  "source": [
    {
      "name": "STUDYID",
      "kind": "str"
    },
    {
      "name": "USUBJID",
      "kind": "str"
    },
    {
      "name": "LBSEQ",
      "kind": "str"
    },
    {
      "name": "LBTESTCD",
      "kind": "str"
    },
    {
      "name": "LBTEST",
      "kind": "str"
    },
    {
      "name": "VISIT",
      "kind": "str"
    },
    {
      "name": "LBSTRESN",
      "kind": "float"
    }
  ],
  "output": [
    {
      "name": "STUDYID",
      "kind": "str"
    },
    {
      "name": "USUBJID",
      "kind": "str"
    },
    {
      "name": "AVISIT",
      "kind": "str"
    },
    {
      "name": "PARAMCD",
      "kind": "str"
    },
    {
      "name": "PARAM",
      "kind": "str"
    },
    {
      "name": "AVAL",
      "kind": "float"
    },
    {
      "name": "DTYPE",
      "kind": "str"
    }
  ],
  "templates": [
    {
      "mode": {
        "records": null
      },
      "assignments": [
        {
          "column": 3,
          "path": "rows[0].derivations.PARAMCD.source",
          "expression": {
            "source": 3
          }
        },
        {
          "column": 4,
          "path": "rows[0].derivations.PARAM.source",
          "expression": {
            "source": 4
          }
        },
        {
          "column": 5,
          "path": "rows[0].derivations.AVAL.source",
          "expression": {
            "source": 6
          }
        },
        {
          "column": 6,
          "path": "rows[0].derivations.DTYPE.literal",
          "expression": {
            "literal": {
              "missing": null
            }
          }
        }
      ]
    },
    {
      "mode": {
        "groups": [
          0,
          1,
          5
        ]
      },
      "assignments": [
        {
          "column": 3,
          "path": "rows[1].derivations.PARAMCD.literal",
          "expression": {
            "literal": {
              "str": "TOTAL"
            }
          }
        },
        {
          "column": 4,
          "path": "rows[1].derivations.PARAM.literal",
          "expression": {
            "literal": {
              "str": "Total of Components"
            }
          }
        },
        {
          "column": 5,
          "path": "rows[1].derivations.AVAL.aggregate",
          "expression": {
            "reduce": {
              "column": 6,
              "reducer": "SUM",
              "text": "SUM(LB.LBSTRESN)"
            }
          }
        },
        {
          "column": 6,
          "path": "rows[1].derivations.DTYPE.literal",
          "expression": {
            "literal": {
              "str": "CALCULATION"
            }
          }
        }
      ]
    }
  ],
  "columns": [
    {
      "column": 0,
      "path": "columns.STUDYID.derivation.source",
      "expression": {
        "source": 0
      }
    },
    {
      "column": 1,
      "path": "columns.USUBJID.derivation.source",
      "expression": {
        "source": 1
      }
    },
    {
      "column": 2,
      "path": "columns.AVISIT.derivation.source",
      "expression": {
        "source": 5
      }
    }
  ],
  "keys": [
    0,
    1,
    3,
    2
  ],
  "verifications": [
    {
      "path": "verifications[0].unique",
      "check": {
        "unique": [
          0,
          1,
          3,
          2
        ]
      }
    },
    {
      "path": "verifications[1].row_count",
      "check": {
        "row_count": {
          "min": "17",
          "max": "17"
        }
      }
    }
  ]
}
