case	input	request	expected	snapshot
adlb	adlb.arrow	{"protocol":"dataset/1","source":[{"name":"STUDYID","kind":"str"},{"name":"USUBJID","kind":"str"},{"name":"LBSEQ","kind":"str"},{"name":"LBTESTCD","kind":"str"},{"name":"LBTEST","kind":"str"},{"name":"VISIT","kind":"str"},{"name":"LBSTRESN","kind":"float"}],"output":[{"name":"STUDYID","kind":"str"},{"name":"USUBJID","kind":"str"},{"name":"AVISIT","kind":"str"},{"name":"PARAMCD","kind":"str"},{"name":"PARAM","kind":"str"},{"name":"AVAL","kind":"float"},{"name":"DTYPE","kind":"str"}],"templates":[{"mode":{"records":null},"assignments":[{"column":3,"path":"rows[0].derivations.PARAMCD.source","expression":{"source":3}},{"column":4,"path":"rows[0].derivations.PARAM.source","expression":{"source":4}},{"column":5,"path":"rows[0].derivations.AVAL.source","expression":{"source":6}},{"column":6,"path":"rows[0].derivations.DTYPE.literal","expression":{"literal":{"missing":null}}}]},{"mode":{"groups":[0,1,5]},"assignments":[{"column":3,"path":"rows[1].derivations.PARAMCD.literal","expression":{"literal":{"str":"TOTAL"}}},{"column":4,"path":"rows[1].derivations.PARAM.literal","expression":{"literal":{"str":"Total of Components"}}},{"column":5,"path":"rows[1].derivations.AVAL.aggregate","expression":{"reduce":{"column":6,"reducer":"SUM","text":"SUM(LB.LBSTRESN)"}}},{"column":6,"path":"rows[1].derivations.DTYPE.literal","expression":{"literal":{"str":"CALCULATION"}}}]}],"columns":[{"column":0,"path":"columns.STUDYID.derivation.source","expression":{"source":0}},{"column":1,"path":"columns.USUBJID.derivation.source","expression":{"source":1}},{"column":2,"path":"columns.AVISIT.derivation.source","expression":{"source":5}}],"keys":[0,1,3,2],"verifications":[{"path":"verifications[0].unique","check":{"unique":[0,1,3,2]}},{"path":"verifications[1].row_count","check":{"row_count":{"min":"17","max":"17"}}}]}	{"protocol":"dataset/1","outcome":{"status":"success","verifications":[{"spec_path":"verifications[0].unique","condition":"unique_failed","requirement":"REQ-0381","evaluated_count":"17","failed_count":"0","output_rows":"17","offending_rows":[]},{"spec_path":"verifications[1].row_count","condition":"row_count_failed","requirement":"REQ-0385","evaluated_count":"1","failed_count":"0","output_rows":"17","offending_rows":[]}]}}	{"protocol":"table/1","columns":[["STUDYID","str"],["USUBJID","str"],["AVISIT","str"],["PARAMCD","str"],["PARAM","str"],["AVAL","float"],["DTYPE","str"]],"row_count":"17","chunks":["17"],"rows":[[{"str":"YAMAA-01"},{"str":"YAMAA-01-101"},{"str":"WEEK 1"},{"str":"COMP1"},{"str":"Component 1"},{"float":"3fb999999999999a"},{"missing":null}],[{"str":"YAMAA-01"},{"str":"YAMAA-01-101"},{"str":"WEEK 1"},{"str":"COMP2"},{"str":"Component 2"},{"float":"3fc999999999999a"},{"missing":null}],[{"str":"YAMAA-01"},{"str":"YAMAA-01-101"},{"str":"WEEK 1"},{"str":"COMP3"},{"str":"Component 3"},{"float":"3fd3333333333333"},{"missing":null}],[{"str":"YAMAA-01"},{"str":"YAMAA-01-102"},{"str":"WEEK 1"},{"str":"COMP3"},{"str":"Component 3"},{"float":"3fd3333333333333"},{"missing":null}],[{"str":"YAMAA-01"},{"str":"YAMAA-01-102"},{"str":"WEEK 1"},{"str":"COMP2"},{"str":"Component 2"},{"float":"3fc999999999999a"},{"missing":null}],[{"str":"YAMAA-01"},{"str":"YAMAA-01-102"},{"str":"WEEK 1"},{"str":"COMP1"},{"str":"Component 1"},{"float":"3fb999999999999a"},{"missing":null}],[{"str":"YAMAA-01"},{"str":"YAMAA-01-103"},{"str":"WEEK 1"},{"str":"COMP1"},{"str":"Component 1"},{"float":"3fb999999999999a"},{"missing":null}],[{"str":"YAMAA-01"},{"str":"YAMAA-01-104"},{"str":"WEEK 1"},{"str":"COMP1"},{"str":"Component 1"},{"float":"3fb999999999999a"},{"missing":null}],[{"str":"YAMAA-01"},{"str":"YAMAA-01-104"},{"str":"WEEK 1"},{"str":"COMP2"},{"str":"Component 2"},{"missing":null},{"missing":null}],[{"str":"YAMAA-01"},{"str":"YAMAA-01-104"},{"str":"WEEK 1"},{"str":"COMP3"},{"str":"Component 3"},{"float":"3fd3333333333333"},{"missing":null}],[{"str":"YAMAA-01"},{"str":"YAMAA-01-105"},{"str":"WEEK 1"},{"str":"COMP1"},{"str":"Component 1"},{"missing":null},{"missing":null}],[{"str":"YAMAA-01"},{"str":"YAMAA-01-105"},{"str":"WEEK 1"},{"str":"COMP2"},{"str":"Component 2"},{"missing":null},{"missing":null}],[{"str":"YAMAA-01"},{"str":"YAMAA-01-101"},{"str":"WEEK 1"},{"str":"TOTAL"},{"str":"Total of Components"},{"float":"3fe3333333333334"},{"str":"CALCULATION"}],[{"str":"YAMAA-01"},{"str":"YAMAA-01-102"},{"str":"WEEK 1"},{"str":"TOTAL"},{"str":"Total of Components"},{"float":"3fe3333333333333"},{"str":"CALCULATION"}],[{"str":"YAMAA-01"},{"str":"YAMAA-01-103"},{"str":"WEEK 1"},{"str":"TOTAL"},{"str":"Total of Components"},{"float":"3fb999999999999a"},{"str":"CALCULATION"}],[{"str":"YAMAA-01"},{"str":"YAMAA-01-104"},{"str":"WEEK 1"},{"str":"TOTAL"},{"str":"Total of Components"},{"float":"3fd999999999999a"},{"str":"CALCULATION"}],[{"str":"YAMAA-01"},{"str":"YAMAA-01-105"},{"str":"WEEK 1"},{"str":"TOTAL"},{"str":"Total of Components"},{"missing":null},{"str":"CALCULATION"}]]}
duplicate_keys	adlb.arrow	{"protocol":"dataset/1","source":[{"name":"STUDYID","kind":"str"},{"name":"USUBJID","kind":"str"},{"name":"LBSEQ","kind":"str"},{"name":"LBTESTCD","kind":"str"},{"name":"LBTEST","kind":"str"},{"name":"VISIT","kind":"str"},{"name":"LBSTRESN","kind":"float"}],"output":[{"name":"STUDYID","kind":"str"},{"name":"USUBJID","kind":"str"},{"name":"AVISIT","kind":"str"},{"name":"PARAMCD","kind":"str"},{"name":"PARAM","kind":"str"},{"name":"AVAL","kind":"float"},{"name":"DTYPE","kind":"str"}],"templates":[{"mode":{"records":null},"assignments":[{"column":3,"path":"rows[0].derivations.PARAMCD.source","expression":{"source":3}},{"column":4,"path":"rows[0].derivations.PARAM.source","expression":{"source":4}},{"column":5,"path":"rows[0].derivations.AVAL.source","expression":{"source":6}},{"column":6,"path":"rows[0].derivations.DTYPE.literal","expression":{"literal":{"missing":null}}}]},{"mode":{"groups":[0,1,5]},"assignments":[{"column":3,"path":"rows[1].derivations.PARAMCD.literal","expression":{"literal":{"str":"TOTAL"}}},{"column":4,"path":"rows[1].derivations.PARAM.literal","expression":{"literal":{"str":"Total of Components"}}},{"column":5,"path":"rows[1].derivations.AVAL.aggregate","expression":{"reduce":{"column":6,"reducer":"SUM","text":"SUM(LB.LBSTRESN)"}}},{"column":6,"path":"rows[1].derivations.DTYPE.literal","expression":{"literal":{"str":"CALCULATION"}}}]}],"columns":[{"column":0,"path":"columns.STUDYID.derivation.source","expression":{"source":0}},{"column":1,"path":"columns.USUBJID.derivation.source","expression":{"source":1}},{"column":2,"path":"columns.AVISIT.derivation.source","expression":{"source":5}}],"keys":[0],"verifications":[{"path":"verifications[0].unique","check":{"unique":[0,1,3,2]}},{"path":"verifications[1].row_count","check":{"row_count":{"min":"17","max":"17"}}}]}	{"protocol":"dataset/1","outcome":{"status":"failure","phase":"output","verifications":[{"spec_path":"keys","condition":"duplicate_key","requirement":"REQ-0240","evaluated_count":"1","failed_count":"1","output_rows":"17","offending_rows":[{"position":"0","keys":[{"str":"YAMAA-01"}]}]}]}}	
row_count	adlb.arrow	{"protocol":"dataset/1","source":[{"name":"STUDYID","kind":"str"},{"name":"USUBJID","kind":"str"},{"name":"LBSEQ","kind":"str"},{"name":"LBTESTCD","kind":"str"},{"name":"LBTEST","kind":"str"},{"name":"VISIT","kind":"str"},{"name":"LBSTRESN","kind":"float"}],"output":[{"name":"STUDYID","kind":"str"},{"name":"USUBJID","kind":"str"},{"name":"AVISIT","kind":"str"},{"name":"PARAMCD","kind":"str"},{"name":"PARAM","kind":"str"},{"name":"AVAL","kind":"float"},{"name":"DTYPE","kind":"str"}],"templates":[{"mode":{"records":null},"assignments":[{"column":3,"path":"rows[0].derivations.PARAMCD.source","expression":{"source":3}},{"column":4,"path":"rows[0].derivations.PARAM.source","expression":{"source":4}},{"column":5,"path":"rows[0].derivations.AVAL.source","expression":{"source":6}},{"column":6,"path":"rows[0].derivations.DTYPE.literal","expression":{"literal":{"missing":null}}}]},{"mode":{"groups":[0,1,5]},"assignments":[{"column":3,"path":"rows[1].derivations.PARAMCD.literal","expression":{"literal":{"str":"TOTAL"}}},{"column":4,"path":"rows[1].derivations.PARAM.literal","expression":{"literal":{"str":"Total of Components"}}},{"column":5,"path":"rows[1].derivations.AVAL.aggregate","expression":{"reduce":{"column":6,"reducer":"SUM","text":"SUM(LB.LBSTRESN)"}}},{"column":6,"path":"rows[1].derivations.DTYPE.literal","expression":{"literal":{"str":"CALCULATION"}}}]}],"columns":[{"column":0,"path":"columns.STUDYID.derivation.source","expression":{"source":0}},{"column":1,"path":"columns.USUBJID.derivation.source","expression":{"source":1}},{"column":2,"path":"columns.AVISIT.derivation.source","expression":{"source":5}}],"keys":[0,1,3,2],"verifications":[{"path":"verifications[0].unique","check":{"unique":[0,1,3,2]}},{"path":"verifications[1].row_count","check":{"row_count":{"min":"18","max":"18"}}}]}	{"protocol":"dataset/1","outcome":{"status":"failure","phase":"verification","verifications":[{"spec_path":"verifications[0].unique","condition":"unique_failed","requirement":"REQ-0381","evaluated_count":"17","failed_count":"0","output_rows":"17","offending_rows":[]},{"spec_path":"verifications[1].row_count","condition":"row_count_failed","requirement":"REQ-0385","evaluated_count":"1","failed_count":"1","output_rows":"17","offending_rows":[]}]}}	
conversion_before_keys	adlb.arrow	{"protocol":"dataset/1","source":[{"name":"STUDYID","kind":"str"},{"name":"USUBJID","kind":"str"},{"name":"LBSEQ","kind":"str"},{"name":"LBTESTCD","kind":"str"},{"name":"LBTEST","kind":"str"},{"name":"VISIT","kind":"str"},{"name":"LBSTRESN","kind":"float"}],"output":[{"name":"STUDYID","kind":"str"},{"name":"USUBJID","kind":"str"},{"name":"AVISIT","kind":"str"},{"name":"PARAMCD","kind":"str"},{"name":"PARAM","kind":"str"},{"name":"AVAL","kind":"float"},{"name":"DTYPE","kind":"str"}],"templates":[{"mode":{"records":null},"assignments":[{"column":3,"path":"rows[0].derivations.PARAMCD.source","expression":{"source":3}},{"column":4,"path":"rows[0].derivations.PARAM.source","expression":{"source":4}},{"column":5,"path":"rows[0].derivations.AVAL.source","expression":{"literal":{"bool":true}}},{"column":6,"path":"rows[0].derivations.DTYPE.literal","expression":{"literal":{"missing":null}}}]},{"mode":{"groups":[0,1,5]},"assignments":[{"column":3,"path":"rows[1].derivations.PARAMCD.literal","expression":{"literal":{"str":"TOTAL"}}},{"column":4,"path":"rows[1].derivations.PARAM.literal","expression":{"literal":{"str":"Total of Components"}}},{"column":5,"path":"rows[1].derivations.AVAL.aggregate","expression":{"reduce":{"column":6,"reducer":"SUM","text":"SUM(LB.LBSTRESN)"}}},{"column":6,"path":"rows[1].derivations.DTYPE.literal","expression":{"literal":{"str":"CALCULATION"}}}]}],"columns":[{"column":0,"path":"columns.STUDYID.derivation.source","expression":{"source":0}},{"column":1,"path":"columns.USUBJID.derivation.source","expression":{"source":1}},{"column":2,"path":"columns.AVISIT.derivation.source","expression":{"source":5}}],"keys":[0,1,3,2],"verifications":[{"path":"verifications[0].unique","check":{"unique":[0,1,3,2]}},{"path":"verifications[1].row_count","check":{"row_count":{"min":"17","max":"17"}}}]}	{"protocol":"dataset/1","outcome":{"status":"condition","diagnostic":{"phase":"convert","condition":"conversion_failed","requirement":"REQ-0013","spec_paths":["columns.AVAL"],"context":{"from":{"str":"bool"},"to":{"str":"float"},"value":{"bool":true}}},"identity":null}}	
temporal_literals	adlb.arrow	{"protocol":"dataset/1","source":[{"name":"STUDYID","kind":"str"},{"name":"USUBJID","kind":"str"},{"name":"LBSEQ","kind":"str"},{"name":"LBTESTCD","kind":"str"},{"name":"LBTEST","kind":"str"},{"name":"VISIT","kind":"str"},{"name":"LBSTRESN","kind":"float"}],"output":[{"name":"STUDYID","kind":"str"},{"name":"USUBJID","kind":"str"},{"name":"AVISIT","kind":"str"},{"name":"PARAMCD","kind":"str"},{"name":"PARAM","kind":"str"},{"name":"AVAL","kind":"date"},{"name":"DTYPE","kind":"str"}],"templates":[{"mode":{"records":null},"assignments":[{"column":3,"path":"rows[0].derivations.PARAMCD.source","expression":{"source":3}},{"column":4,"path":"rows[0].derivations.PARAM.source","expression":{"source":4}},{"column":5,"path":"rows[0].derivations.AVAL.source","expression":{"literal":{"date":{"text":"2024-02-29","precision":"year"}}}},{"column":6,"path":"rows[0].derivations.DTYPE.literal","expression":{"literal":{"missing":null}}}]},{"mode":{"groups":[0,1,5]},"assignments":[{"column":3,"path":"rows[1].derivations.PARAMCD.literal","expression":{"literal":{"str":"TOTAL"}}},{"column":4,"path":"rows[1].derivations.PARAM.literal","expression":{"literal":{"str":"Total of Components"}}},{"column":5,"path":"rows[1].derivations.AVAL.aggregate","expression":{"literal":{"date":{"text":"2024-02-29","precision":"year"}}}},{"column":6,"path":"rows[1].derivations.DTYPE.literal","expression":{"literal":{"str":"CALCULATION"}}}]}],"columns":[{"column":0,"path":"columns.STUDYID.derivation.source","expression":{"source":0}},{"column":1,"path":"columns.USUBJID.derivation.source","expression":{"source":1}},{"column":2,"path":"columns.AVISIT.derivation.source","expression":{"source":5}}],"keys":[0,1,3,2],"verifications":[{"path":"verifications[0].unique","check":{"unique":[0,1,3,2]}},{"path":"verifications[1].row_count","check":{"row_count":{"min":"17","max":"17"}}}]}	{"protocol":"dataset/1","outcome":{"status":"success","verifications":[{"spec_path":"verifications[0].unique","condition":"unique_failed","requirement":"REQ-0381","evaluated_count":"17","failed_count":"0","output_rows":"17","offending_rows":[]},{"spec_path":"verifications[1].row_count","condition":"row_count_failed","requirement":"REQ-0385","evaluated_count":"1","failed_count":"0","output_rows":"17","offending_rows":[]}]}}	{"protocol":"table/1","columns":[["STUDYID","str"],["USUBJID","str"],["AVISIT","str"],["PARAMCD","str"],["PARAM","str"],["AVAL","date"],["DTYPE","str"]],"row_count":"17","chunks":["17"],"rows":[[{"str":"YAMAA-01"},{"str":"YAMAA-01-101"},{"str":"WEEK 1"},{"str":"COMP1"},{"str":"Component 1"},{"date":{"text":"2024-02-29","precision":"year"}},{"missing":null}],[{"str":"YAMAA-01"},{"str":"YAMAA-01-101"},{"str":"WEEK 1"},{"str":"COMP2"},{"str":"Component 2"},{"date":{"text":"2024-02-29","precision":"year"}},{"missing":null}],[{"str":"YAMAA-01"},{"str":"YAMAA-01-101"},{"str":"WEEK 1"},{"str":"COMP3"},{"str":"Component 3"},{"date":{"text":"2024-02-29","precision":"year"}},{"missing":null}],[{"str":"YAMAA-01"},{"str":"YAMAA-01-102"},{"str":"WEEK 1"},{"str":"COMP3"},{"str":"Component 3"},{"date":{"text":"2024-02-29","precision":"year"}},{"missing":null}],[{"str":"YAMAA-01"},{"str":"YAMAA-01-102"},{"str":"WEEK 1"},{"str":"COMP2"},{"str":"Component 2"},{"date":{"text":"2024-02-29","precision":"year"}},{"missing":null}],[{"str":"YAMAA-01"},{"str":"YAMAA-01-102"},{"str":"WEEK 1"},{"str":"COMP1"},{"str":"Component 1"},{"date":{"text":"2024-02-29","precision":"year"}},{"missing":null}],[{"str":"YAMAA-01"},{"str":"YAMAA-01-103"},{"str":"WEEK 1"},{"str":"COMP1"},{"str":"Component 1"},{"date":{"text":"2024-02-29","precision":"year"}},{"missing":null}],[{"str":"YAMAA-01"},{"str":"YAMAA-01-104"},{"str":"WEEK 1"},{"str":"COMP1"},{"str":"Component 1"},{"date":{"text":"2024-02-29","precision":"year"}},{"missing":null}],[{"str":"YAMAA-01"},{"str":"YAMAA-01-104"},{"str":"WEEK 1"},{"str":"COMP2"},{"str":"Component 2"},{"date":{"text":"2024-02-29","precision":"year"}},{"missing":null}],[{"str":"YAMAA-01"},{"str":"YAMAA-01-104"},{"str":"WEEK 1"},{"str":"COMP3"},{"str":"Component 3"},{"date":{"text":"2024-02-29","precision":"year"}},{"missing":null}],[{"str":"YAMAA-01"},{"str":"YAMAA-01-105"},{"str":"WEEK 1"},{"str":"COMP1"},{"str":"Component 1"},{"date":{"text":"2024-02-29","precision":"year"}},{"missing":null}],[{"str":"YAMAA-01"},{"str":"YAMAA-01-105"},{"str":"WEEK 1"},{"str":"COMP2"},{"str":"Component 2"},{"date":{"text":"2024-02-29","precision":"year"}},{"missing":null}],[{"str":"YAMAA-01"},{"str":"YAMAA-01-101"},{"str":"WEEK 1"},{"str":"TOTAL"},{"str":"Total of Components"},{"date":{"text":"2024-02-29","precision":"year"}},{"str":"CALCULATION"}],[{"str":"YAMAA-01"},{"str":"YAMAA-01-102"},{"str":"WEEK 1"},{"str":"TOTAL"},{"str":"Total of Components"},{"date":{"text":"2024-02-29","precision":"year"}},{"str":"CALCULATION"}],[{"str":"YAMAA-01"},{"str":"YAMAA-01-103"},{"str":"WEEK 1"},{"str":"TOTAL"},{"str":"Total of Components"},{"date":{"text":"2024-02-29","precision":"year"}},{"str":"CALCULATION"}],[{"str":"YAMAA-01"},{"str":"YAMAA-01-104"},{"str":"WEEK 1"},{"str":"TOTAL"},{"str":"Total of Components"},{"date":{"text":"2024-02-29","precision":"year"}},{"str":"CALCULATION"}],[{"str":"YAMAA-01"},{"str":"YAMAA-01-105"},{"str":"WEEK 1"},{"str":"TOTAL"},{"str":"Total of Components"},{"date":{"text":"2024-02-29","precision":"year"}},{"str":"CALCULATION"}]]}
empty_literal	adlb-empty.arrow	{"protocol":"dataset/1","source":[{"name":"STUDYID","kind":"str"},{"name":"USUBJID","kind":"str"},{"name":"LBSEQ","kind":"str"},{"name":"LBTESTCD","kind":"str"},{"name":"LBTEST","kind":"str"},{"name":"VISIT","kind":"str"},{"name":"LBSTRESN","kind":"float"}],"output":[{"name":"STUDYID","kind":"str"},{"name":"USUBJID","kind":"str"},{"name":"AVISIT","kind":"str"},{"name":"PARAMCD","kind":"str"},{"name":"PARAM","kind":"str"},{"name":"AVAL","kind":"float"},{"name":"DTYPE","kind":"str"}],"templates":[{"mode":{"records":null},"assignments":[{"column":3,"path":"rows[0].derivations.PARAMCD.source","expression":{"source":3}},{"column":4,"path":"rows[0].derivations.PARAM.source","expression":{"source":4}},{"column":5,"path":"rows[0].derivations.AVAL.source","expression":{"literal":{"bool":true}}},{"column":6,"path":"rows[0].derivations.DTYPE.literal","expression":{"literal":{"missing":null}}}]},{"mode":{"groups":[0,1,5]},"assignments":[{"column":3,"path":"rows[1].derivations.PARAMCD.literal","expression":{"literal":{"str":"TOTAL"}}},{"column":4,"path":"rows[1].derivations.PARAM.literal","expression":{"literal":{"str":"Total of Components"}}},{"column":5,"path":"rows[1].derivations.AVAL.aggregate","expression":{"reduce":{"column":6,"reducer":"SUM","text":"SUM(LB.LBSTRESN)"}}},{"column":6,"path":"rows[1].derivations.DTYPE.literal","expression":{"literal":{"str":"CALCULATION"}}}]}],"columns":[{"column":0,"path":"columns.STUDYID.derivation.source","expression":{"source":0}},{"column":1,"path":"columns.USUBJID.derivation.source","expression":{"source":1}},{"column":2,"path":"columns.AVISIT.derivation.source","expression":{"source":5}}],"keys":[0,1,3,2],"verifications":[{"path":"verifications[0].unique","check":{"unique":[0,1,3,2]}},{"path":"verifications[1].row_count","check":{"row_count":{"min":"0","max":"0"}}}]}	{"protocol":"dataset/1","outcome":{"status":"success","verifications":[{"spec_path":"verifications[0].unique","condition":"unique_failed","requirement":"REQ-0381","evaluated_count":"0","failed_count":"0","output_rows":"0","offending_rows":[]},{"spec_path":"verifications[1].row_count","condition":"row_count_failed","requirement":"REQ-0385","evaluated_count":"1","failed_count":"0","output_rows":"0","offending_rows":[]}]}}	{"protocol":"table/1","columns":[["STUDYID","str"],["USUBJID","str"],["AVISIT","str"],["PARAMCD","str"],["PARAM","str"],["AVAL","float"],["DTYPE","str"]],"row_count":"0","chunks":["0"],"rows":[]}
integer_overflow	integer-sum.arrow	{"protocol":"dataset/1","source":[{"name":"id","kind":"int"},{"name":"x","kind":"int"}],"output":[{"name":"id","kind":"int"},{"name":"x","kind":"int"}],"templates":[{"mode":{"groups":[0]},"assignments":[{"column":0,"path":"rows[0].derivations.id.source","expression":{"source":0}},{"column":1,"path":"rows[0].derivations.x.aggregate","expression":{"reduce":{"column":1,"reducer":"SUM","text":"SUM(T.x)"}}}]}],"columns":[],"keys":[0],"verifications":[]}	{"protocol":"dataset/1","outcome":{"status":"condition","diagnostic":{"phase":"derivation","condition":"integer_overflow","requirement":"REQ-0434","spec_paths":["rows[0].derivations.x.aggregate"],"context":{"expr":{"str":"SUM(T.x)"},"maximum":{"int":"9223372036854775807"},"minimum":{"int":"-9223372036854775808"},"value":{"str":"9223372036854775808"}}},"identity":{"position":"0","keys":[{"int":"5"}]}}}	
row_filters	adlb.arrow	{"protocol":"dataset/1","source":[{"name":"STUDYID","kind":"str"},{"name":"USUBJID","kind":"str"},{"name":"LBSEQ","kind":"str"},{"name":"LBTESTCD","kind":"str"},{"name":"LBTEST","kind":"str"},{"name":"VISIT","kind":"str"},{"name":"LBSTRESN","kind":"float"}],"output":[{"name":"STUDYID","kind":"str"},{"name":"USUBJID","kind":"str"},{"name":"AVISIT","kind":"str"},{"name":"PARAMCD","kind":"str"},{"name":"PARAM","kind":"str"},{"name":"AVAL","kind":"float"},{"name":"DTYPE","kind":"str"}],"templates":[{"mode":{"records":null},"assignments":[{"column":3,"path":"rows[0].derivations.PARAMCD.source","expression":{"source":3}},{"column":4,"path":"rows[0].derivations.PARAM.source","expression":{"source":4}},{"column":5,"path":"rows[0].derivations.AVAL.source","expression":{"source":6}},{"column":6,"path":"rows[0].derivations.DTYPE.literal","expression":{"literal":{"missing":null}}}],"filter":{"path":"rows[0].filter","text":"AVAL > 0","nodes":[{"compare":{"operator":"gt","left":{"identifier":"AVAL"},"right":{"literal":{"int":"0"}}}}],"root":0,"bindings":[{"name":"AVAL","read":{"column":5}}]}},{"mode":{"groups":[0,1,5]},"assignments":[{"column":3,"path":"rows[1].derivations.PARAMCD.literal","expression":{"literal":{"str":"TOTAL"}}},{"column":4,"path":"rows[1].derivations.PARAM.literal","expression":{"literal":{"str":"Total of Components"}}},{"column":5,"path":"rows[1].derivations.AVAL.aggregate","expression":{"reduce":{"column":6,"reducer":"SUM","text":"SUM(LB.LBSTRESN)"}}},{"column":6,"path":"rows[1].derivations.DTYPE.literal","expression":{"literal":{"str":"CALCULATION"}}}],"filter":{"path":"rows[1].filter","text":"AVAL > 0.5","nodes":[{"compare":{"operator":"gt","left":{"identifier":"AVAL"},"right":{"literal":{"float":"3fe0000000000000"}}}}],"root":0,"bindings":[{"name":"AVAL","read":{"column":5}}]}}],"columns":[{"column":0,"path":"columns.STUDYID.derivation.source","expression":{"source":0}},{"column":1,"path":"columns.USUBJID.derivation.source","expression":{"source":1}},{"column":2,"path":"columns.AVISIT.derivation.source","expression":{"source":5}}],"keys":[0,1,3,2],"verifications":[]}	{"protocol":"dataset/1","outcome":{"status":"success","verifications":[]}}	{"protocol":"table/1","columns":[["STUDYID","str"],["USUBJID","str"],["AVISIT","str"],["PARAMCD","str"],["PARAM","str"],["AVAL","float"],["DTYPE","str"]],"row_count":"11","chunks":["11"],"rows":[[{"str":"YAMAA-01"},{"str":"YAMAA-01-101"},{"str":"WEEK 1"},{"str":"COMP1"},{"str":"Component 1"},{"float":"3fb999999999999a"},{"missing":null}],[{"str":"YAMAA-01"},{"str":"YAMAA-01-101"},{"str":"WEEK 1"},{"str":"COMP2"},{"str":"Component 2"},{"float":"3fc999999999999a"},{"missing":null}],[{"str":"YAMAA-01"},{"str":"YAMAA-01-101"},{"str":"WEEK 1"},{"str":"COMP3"},{"str":"Component 3"},{"float":"3fd3333333333333"},{"missing":null}],[{"str":"YAMAA-01"},{"str":"YAMAA-01-102"},{"str":"WEEK 1"},{"str":"COMP3"},{"str":"Component 3"},{"float":"3fd3333333333333"},{"missing":null}],[{"str":"YAMAA-01"},{"str":"YAMAA-01-102"},{"str":"WEEK 1"},{"str":"COMP2"},{"str":"Component 2"},{"float":"3fc999999999999a"},{"missing":null}],[{"str":"YAMAA-01"},{"str":"YAMAA-01-102"},{"str":"WEEK 1"},{"str":"COMP1"},{"str":"Component 1"},{"float":"3fb999999999999a"},{"missing":null}],[{"str":"YAMAA-01"},{"str":"YAMAA-01-103"},{"str":"WEEK 1"},{"str":"COMP1"},{"str":"Component 1"},{"float":"3fb999999999999a"},{"missing":null}],[{"str":"YAMAA-01"},{"str":"YAMAA-01-104"},{"str":"WEEK 1"},{"str":"COMP1"},{"str":"Component 1"},{"float":"3fb999999999999a"},{"missing":null}],[{"str":"YAMAA-01"},{"str":"YAMAA-01-104"},{"str":"WEEK 1"},{"str":"COMP3"},{"str":"Component 3"},{"float":"3fd3333333333333"},{"missing":null}],[{"str":"YAMAA-01"},{"str":"YAMAA-01-101"},{"str":"WEEK 1"},{"str":"TOTAL"},{"str":"Total of Components"},{"float":"3fe3333333333334"},{"str":"CALCULATION"}],[{"str":"YAMAA-01"},{"str":"YAMAA-01-102"},{"str":"WEEK 1"},{"str":"TOTAL"},{"str":"Total of Components"},{"float":"3fe3333333333333"},{"str":"CALCULATION"}]]}
false_filters	adlb.arrow	{"protocol":"dataset/1","source":[{"name":"STUDYID","kind":"str"},{"name":"USUBJID","kind":"str"},{"name":"LBSEQ","kind":"str"},{"name":"LBTESTCD","kind":"str"},{"name":"LBTEST","kind":"str"},{"name":"VISIT","kind":"str"},{"name":"LBSTRESN","kind":"float"}],"output":[{"name":"STUDYID","kind":"str"},{"name":"USUBJID","kind":"str"},{"name":"AVISIT","kind":"str"},{"name":"PARAMCD","kind":"str"},{"name":"PARAM","kind":"str"},{"name":"AVAL","kind":"float"},{"name":"DTYPE","kind":"str"}],"templates":[{"mode":{"records":null},"assignments":[{"column":3,"path":"rows[0].derivations.PARAMCD.source","expression":{"source":3}},{"column":4,"path":"rows[0].derivations.PARAM.source","expression":{"source":4}},{"column":5,"path":"rows[0].derivations.AVAL.source","expression":{"source":6}},{"column":6,"path":"rows[0].derivations.DTYPE.literal","expression":{"literal":{"missing":null}}}],"filter":{"path":"rows[0].filter","text":"FALSE","nodes":[{"boolean":false}],"root":0,"bindings":[]}},{"mode":{"groups":[0,1,5]},"assignments":[{"column":3,"path":"rows[1].derivations.PARAMCD.literal","expression":{"literal":{"str":"TOTAL"}}},{"column":4,"path":"rows[1].derivations.PARAM.literal","expression":{"literal":{"str":"Total of Components"}}},{"column":5,"path":"rows[1].derivations.AVAL.aggregate","expression":{"reduce":{"column":6,"reducer":"SUM","text":"SUM(LB.LBSTRESN)"}}},{"column":6,"path":"rows[1].derivations.DTYPE.literal","expression":{"literal":{"str":"CALCULATION"}}}],"filter":{"path":"rows[1].filter","text":"FALSE","nodes":[{"boolean":false}],"root":0,"bindings":[]}}],"columns":[{"column":0,"path":"columns.STUDYID.derivation.source","expression":{"source":0}},{"column":1,"path":"columns.USUBJID.derivation.source","expression":{"source":1}},{"column":2,"path":"columns.AVISIT.derivation.source","expression":{"source":5}}],"keys":[0,1,3,2],"verifications":[]}	{"protocol":"dataset/1","outcome":{"status":"success","verifications":[]}}	{"protocol":"table/1","columns":[["STUDYID","str"],["USUBJID","str"],["AVISIT","str"],["PARAMCD","str"],["PARAM","str"],["AVAL","float"],["DTYPE","str"]],"row_count":"0","chunks":["0"],"rows":[]}
assert_missing_values	adlb.arrow	{"protocol":"dataset/1","source":[{"name":"STUDYID","kind":"str"},{"name":"USUBJID","kind":"str"},{"name":"LBSEQ","kind":"str"},{"name":"LBTESTCD","kind":"str"},{"name":"LBTEST","kind":"str"},{"name":"VISIT","kind":"str"},{"name":"LBSTRESN","kind":"float"}],"output":[{"name":"STUDYID","kind":"str"},{"name":"USUBJID","kind":"str"},{"name":"AVISIT","kind":"str"},{"name":"PARAMCD","kind":"str"},{"name":"PARAM","kind":"str"},{"name":"AVAL","kind":"float"},{"name":"DTYPE","kind":"str"}],"templates":[{"mode":{"records":null},"assignments":[{"column":3,"path":"rows[0].derivations.PARAMCD.source","expression":{"source":3}},{"column":4,"path":"rows[0].derivations.PARAM.source","expression":{"source":4}},{"column":5,"path":"rows[0].derivations.AVAL.source","expression":{"source":6}},{"column":6,"path":"rows[0].derivations.DTYPE.literal","expression":{"literal":{"missing":null}}}]},{"mode":{"groups":[0,1,5]},"assignments":[{"column":3,"path":"rows[1].derivations.PARAMCD.literal","expression":{"literal":{"str":"TOTAL"}}},{"column":4,"path":"rows[1].derivations.PARAM.literal","expression":{"literal":{"str":"Total of Components"}}},{"column":5,"path":"rows[1].derivations.AVAL.aggregate","expression":{"reduce":{"column":6,"reducer":"SUM","text":"SUM(LB.LBSTRESN)"}}},{"column":6,"path":"rows[1].derivations.DTYPE.literal","expression":{"literal":{"str":"CALCULATION"}}}]}],"columns":[{"column":0,"path":"columns.STUDYID.derivation.source","expression":{"source":0}},{"column":1,"path":"columns.USUBJID.derivation.source","expression":{"source":1}},{"column":2,"path":"columns.AVISIT.derivation.source","expression":{"source":5}}],"keys":[0,1,3,2],"verifications":[{"path":"verifications[0].unique","check":{"unique":[0,1,3,2]}},{"path":"verifications[1].row_count","check":{"row_count":{"min":"17","max":"17"}}},{"path":"verifications[2].assert","check":{"assert":{"path":"verifications[2].assert.expr","text":"AVAL IS NOT NULL","nodes":[{"is_null":{"value":{"identifier":"AVAL"},"negated":true}}],"root":0,"bindings":[{"name":"AVAL","read":{"column":5}}]}}}]}	{"protocol":"dataset/1","outcome":{"status":"failure","phase":"verification","verifications":[{"spec_path":"verifications[0].unique","condition":"unique_failed","requirement":"REQ-0381","evaluated_count":"17","failed_count":"0","output_rows":"17","offending_rows":[]},{"spec_path":"verifications[1].row_count","condition":"row_count_failed","requirement":"REQ-0385","evaluated_count":"1","failed_count":"0","output_rows":"17","offending_rows":[]},{"spec_path":"verifications[2].assert","condition":"assert_failed","requirement":"REQ-0384","evaluated_count":"17","failed_count":"4","output_rows":"17","offending_rows":[{"position":"8","keys":[{"str":"YAMAA-01"},{"str":"YAMAA-01-104"},{"str":"COMP2"},{"str":"WEEK 1"}]},{"position":"10","keys":[{"str":"YAMAA-01"},{"str":"YAMAA-01-105"},{"str":"COMP1"},{"str":"WEEK 1"}]},{"position":"11","keys":[{"str":"YAMAA-01"},{"str":"YAMAA-01-105"},{"str":"COMP2"},{"str":"WEEK 1"}]},{"position":"16","keys":[{"str":"YAMAA-01"},{"str":"YAMAA-01-105"},{"str":"TOTAL"},{"str":"WEEK 1"}]}]}]}}	null
implies_eager_dynamic_error	adlb.arrow	{"protocol":"dataset/1","source":[{"name":"STUDYID","kind":"str"},{"name":"USUBJID","kind":"str"},{"name":"LBSEQ","kind":"str"},{"name":"LBTESTCD","kind":"str"},{"name":"LBTEST","kind":"str"},{"name":"VISIT","kind":"str"},{"name":"LBSTRESN","kind":"float"}],"output":[{"name":"STUDYID","kind":"str"},{"name":"USUBJID","kind":"str"},{"name":"AVISIT","kind":"str"},{"name":"PARAMCD","kind":"str"},{"name":"PARAM","kind":"str"},{"name":"AVAL","kind":"float"},{"name":"DTYPE","kind":"str"}],"templates":[{"mode":{"records":null},"assignments":[{"column":3,"path":"rows[0].derivations.PARAMCD.source","expression":{"source":3}},{"column":4,"path":"rows[0].derivations.PARAM.source","expression":{"source":4}},{"column":5,"path":"rows[0].derivations.AVAL.source","expression":{"source":6}},{"column":6,"path":"rows[0].derivations.DTYPE.literal","expression":{"literal":{"missing":null}}}]},{"mode":{"groups":[0,1,5]},"assignments":[{"column":3,"path":"rows[1].derivations.PARAMCD.literal","expression":{"literal":{"str":"TOTAL"}}},{"column":4,"path":"rows[1].derivations.PARAM.literal","expression":{"literal":{"str":"Total of Components"}}},{"column":5,"path":"rows[1].derivations.AVAL.aggregate","expression":{"reduce":{"column":6,"reducer":"SUM","text":"SUM(LB.LBSTRESN)"}}},{"column":6,"path":"rows[1].derivations.DTYPE.literal","expression":{"literal":{"str":"CALCULATION"}}}]}],"columns":[{"column":0,"path":"columns.STUDYID.derivation.source","expression":{"source":0}},{"column":1,"path":"columns.USUBJID.derivation.source","expression":{"source":1}},{"column":2,"path":"columns.AVISIT.derivation.source","expression":{"source":5}}],"keys":[0,1,3,2],"verifications":[{"path":"verifications[0].unique","check":{"unique":[0,1,3,2]}},{"path":"verifications[1].row_count","check":{"row_count":{"min":"17","max":"17"}}},{"path":"verifications[2].implies","check":{"implies":{"when":{"path":"verifications[2].implies.when","text":"FALSE","nodes":[{"boolean":false}],"root":0,"bindings":[]},"then":{"path":"verifications[2].implies.then","text":"'x' LIKE PARAMCD ESCAPE '1'","nodes":[{"like":{"value":{"literal":{"str":"x"}},"pattern":{"identifier":"PARAMCD"},"escape":"1","negated":false}}],"root":0,"bindings":[{"name":"PARAMCD","read":{"column":3}}]}}}}]}	{"protocol":"dataset/1","outcome":{"status":"condition","diagnostic":{"phase":"validation","condition":"invalid_predicate","requirement":"REQ-0191","spec_paths":["verifications[2].implies.then"],"context":{"reason":{"str":"LIKE pattern has a dangling escape"}},"operand_route":[]},"identity":null,"verifications":[{"spec_path":"verifications[0].unique","condition":"unique_failed","requirement":"REQ-0381","evaluated_count":"17","failed_count":"0","output_rows":"17","offending_rows":[]},{"spec_path":"verifications[1].row_count","condition":"row_count_failed","requirement":"REQ-0385","evaluated_count":"1","failed_count":"0","output_rows":"17","offending_rows":[]}]}}	null
assert_invalid_type_on_empty	adlb-empty.arrow	{"protocol":"dataset/1","source":[{"name":"STUDYID","kind":"str"},{"name":"USUBJID","kind":"str"},{"name":"LBSEQ","kind":"str"},{"name":"LBTESTCD","kind":"str"},{"name":"LBTEST","kind":"str"},{"name":"VISIT","kind":"str"},{"name":"LBSTRESN","kind":"float"}],"output":[{"name":"STUDYID","kind":"str"},{"name":"USUBJID","kind":"str"},{"name":"AVISIT","kind":"str"},{"name":"PARAMCD","kind":"str"},{"name":"PARAM","kind":"str"},{"name":"AVAL","kind":"float"},{"name":"DTYPE","kind":"str"}],"templates":[{"mode":{"records":null},"assignments":[{"column":3,"path":"rows[0].derivations.PARAMCD.source","expression":{"source":3}},{"column":4,"path":"rows[0].derivations.PARAM.source","expression":{"source":4}},{"column":5,"path":"rows[0].derivations.AVAL.source","expression":{"source":6}},{"column":6,"path":"rows[0].derivations.DTYPE.literal","expression":{"literal":{"missing":null}}}]},{"mode":{"groups":[0,1,5]},"assignments":[{"column":3,"path":"rows[1].derivations.PARAMCD.literal","expression":{"literal":{"str":"TOTAL"}}},{"column":4,"path":"rows[1].derivations.PARAM.literal","expression":{"literal":{"str":"Total of Components"}}},{"column":5,"path":"rows[1].derivations.AVAL.aggregate","expression":{"reduce":{"column":6,"reducer":"SUM","text":"SUM(LB.LBSTRESN)"}}},{"column":6,"path":"rows[1].derivations.DTYPE.literal","expression":{"literal":{"str":"CALCULATION"}}}]}],"columns":[{"column":0,"path":"columns.STUDYID.derivation.source","expression":{"source":0}},{"column":1,"path":"columns.USUBJID.derivation.source","expression":{"source":1}},{"column":2,"path":"columns.AVISIT.derivation.source","expression":{"source":5}}],"keys":[0,1,3,2],"verifications":[{"path":"verifications[0].unique","check":{"unique":[0,1,3,2]}},{"path":"verifications[1].row_count","check":{"row_count":{"min":"17","max":"17"}}},{"path":"verifications[2].assert","check":{"assert":{"path":"verifications[2].assert.expr","text":"AVAL = 'bad'","nodes":[{"compare":{"operator":"eq","left":{"identifier":"AVAL"},"right":{"literal":{"str":"bad"}}}}],"root":0,"bindings":[{"name":"AVAL","read":{"column":5}}]}}}]}	{"protocol":"dataset/1","outcome":{"status":"condition","diagnostic":{"phase":"validation","condition":"incompatible_input_type","requirement":"REQ-0190","spec_paths":["verifications[2].assert.expr"],"context":{"left_type":{"str":"float"},"right_type":{"str":"str"}},"operand_route":[]},"identity":null,"verifications":[{"spec_path":"verifications[0].unique","condition":"unique_failed","requirement":"REQ-0381","evaluated_count":"0","failed_count":"0","output_rows":"0","offending_rows":[]},{"spec_path":"verifications[1].row_count","condition":"row_count_failed","requirement":"REQ-0385","evaluated_count":"1","failed_count":"1","output_rows":"0","offending_rows":[]}]}}	null
key_grain_converted_identity	key-grain.arrow	{"protocol":"dataset/1","source":[{"name":"id","kind":"str"},{"name":"tag","kind":"str"},{"name":"value","kind":"str"}],"output":[{"name":"ID","kind":"int"},{"name":"TAG","kind":"str"},{"name":"VALUE","kind":"int"}],"templates":[{"mode":{"keys":null},"assignments":[{"column":0,"path":"columns.ID.derivation.source","expression":{"source":0}},{"column":1,"path":"columns.TAG.derivation.source","expression":{"source":1}}]}],"columns":[{"column":2,"path":"columns.VALUE.derivation.source","expression":{"collect":{"column":2,"identifier":"SRC.value"}}}],"keys":[1,0],"verifications":[]}	{"protocol":"dataset/1","outcome":{"status":"success","verifications":[]}}	{"protocol":"table/1","columns":[["ID","int"],["TAG","str"],["VALUE","int"]],"row_count":"2","chunks":["2"],"rows":[[{"int":"2"},{"str":"__missing_key__"},{"int":"7"}],[{"int":"1"},{"str":"b"},{"int":"7"}]]}
key_grain_empty	key-grain-empty.arrow	{"protocol":"dataset/1","source":[{"name":"id","kind":"str"},{"name":"tag","kind":"str"},{"name":"value","kind":"str"}],"output":[{"name":"ID","kind":"int"},{"name":"TAG","kind":"str"},{"name":"VALUE","kind":"int"}],"templates":[{"mode":{"keys":null},"assignments":[{"column":0,"path":"columns.ID.derivation.source","expression":{"source":0}},{"column":1,"path":"columns.TAG.derivation.source","expression":{"source":1}}]}],"columns":[{"column":2,"path":"columns.VALUE.derivation.source","expression":{"collect":{"column":2,"identifier":"SRC.value"}}}],"keys":[1,0],"verifications":[]}	{"protocol":"dataset/1","outcome":{"status":"success","verifications":[]}}	{"protocol":"table/1","columns":[["ID","int"],["TAG","str"],["VALUE","int"]],"row_count":"0","chunks":["0"],"rows":[]}
key_grain_raw_distinct_before_conversion	key-grain.arrow	{"protocol":"dataset/1","source":[{"name":"id","kind":"str"},{"name":"tag","kind":"str"},{"name":"value","kind":"str"}],"output":[{"name":"ID","kind":"int"},{"name":"TAG","kind":"str"},{"name":"VALUE","kind":"int"}],"templates":[{"mode":{"keys":null},"assignments":[{"column":0,"path":"columns.ID.derivation.source","expression":{"source":0}},{"column":1,"path":"columns.TAG.derivation.source","expression":{"source":1}}]}],"columns":[{"column":2,"path":"columns.VALUE.derivation.source","expression":{"collect":{"column":0,"identifier":"SRC.id"}}}],"keys":[1,0],"verifications":[]}	{"protocol":"dataset/1","outcome":{"status":"condition","diagnostic":{"phase":"derivation","condition":"multiple_values_per_key","requirement":"REQ-0075","spec_paths":["columns.VALUE.derivation.source"],"context":{"identifier":{"str":"SRC.id"},"value_count":{"int":"2"}}},"identity":{"position":"0","keys":[{"str":"__missing_key__"},{"int":"2"}]}}}	null
key_grain_missing_not_user_token	key-grain-missing.arrow	{"protocol":"dataset/1","source":[{"name":"id","kind":"str"},{"name":"tag","kind":"str"},{"name":"value","kind":"str"}],"output":[{"name":"ID","kind":"int"},{"name":"TAG","kind":"str"},{"name":"VALUE","kind":"int"}],"templates":[{"mode":{"keys":null},"assignments":[{"column":0,"path":"columns.ID.derivation.source","expression":{"source":0}},{"column":1,"path":"columns.TAG.derivation.source","expression":{"source":1}}]}],"columns":[{"column":2,"path":"columns.VALUE.derivation.source","expression":{"collect":{"column":2,"identifier":"SRC.value"}}}],"keys":[1,0],"verifications":[]}	{"protocol":"dataset/1","outcome":{"status":"failure","phase":"output","verifications":[{"spec_path":"keys[1]","condition":"missing_key","requirement":"REQ-0240","evaluated_count":"2","failed_count":"1","output_rows":"2","offending_rows":[{"position":"1","keys":[{"str":"present"},{"missing":null}]}]}]}}	null
numbering_exact_descending	numbering.arrow	{"protocol":"dataset/1","source":[{"name":"ID","kind":"int"},{"name":"G","kind":"str"},{"name":"V","kind":"int"}],"output":[{"name":"ID","kind":"int"},{"name":"G","kind":"str"},{"name":"V","kind":"int"},{"name":"SEQ","kind":"int"},{"name":"RANK","kind":"int"},{"name":"DENSE","kind":"int"}],"templates":[{"mode":{"keys":null},"assignments":[{"column":0,"path":"columns.ID.derivation.source","expression":{"source":0}}]}],"columns":[{"column":1,"path":"columns.G.derivation.source","expression":{"collect":{"column":1,"identifier":"SRC.G"}}},{"column":2,"path":"columns.V.derivation.source","expression":{"collect":{"column":2,"identifier":"SRC.V"}}},{"column":3,"path":"columns.SEQ.derivation.row_number","expression":{"number":{"kind":"row_number","group_by":[1],"order_by":[{"column":2,"descending":true,"nulls_first":false}]}}},{"column":4,"path":"columns.RANK.derivation.rank","expression":{"number":{"kind":"competition","group_by":[1],"order_by":[{"column":2,"descending":true,"nulls_first":false}]}}},{"column":5,"path":"columns.DENSE.derivation.rank","expression":{"number":{"kind":"dense","group_by":[1],"order_by":[{"column":2,"descending":true,"nulls_first":false}]}}}],"keys":[0],"verifications":[]}	{"protocol":"dataset/1","outcome":{"status":"success","verifications":[]}}	{"protocol":"table/1","columns":[["ID","int"],["G","str"],["V","int"],["SEQ","int"],["RANK","int"],["DENSE","int"]],"row_count":"6","chunks":["6"],"rows":[[{"int":"1"},{"str":"a"},{"int":"9007199254740992"},{"int":"3"},{"int":"3"},{"int":"2"}],[{"int":"2"},{"missing":null},{"missing":null},{"int":"1"},{"int":"1"},{"int":"1"}],[{"int":"3"},{"str":"a"},{"int":"9007199254740993"},{"int":"1"},{"int":"1"},{"int":"1"}],[{"int":"4"},{"str":"a"},{"missing":null},{"int":"4"},{"int":"4"},{"int":"3"}],[{"int":"5"},{"missing":null},{"missing":null},{"int":"2"},{"int":"1"},{"int":"1"}],[{"int":"6"},{"str":"a"},{"int":"9007199254740993"},{"int":"2"},{"int":"1"},{"int":"1"}]]}
numbering_nulls_first	numbering.arrow	{"protocol":"dataset/1","source":[{"name":"ID","kind":"int"},{"name":"G","kind":"str"},{"name":"V","kind":"int"}],"output":[{"name":"ID","kind":"int"},{"name":"G","kind":"str"},{"name":"V","kind":"int"},{"name":"SEQ","kind":"int"},{"name":"RANK","kind":"int"},{"name":"DENSE","kind":"int"}],"templates":[{"mode":{"keys":null},"assignments":[{"column":0,"path":"columns.ID.derivation.source","expression":{"source":0}}]}],"columns":[{"column":1,"path":"columns.G.derivation.source","expression":{"collect":{"column":1,"identifier":"SRC.G"}}},{"column":2,"path":"columns.V.derivation.source","expression":{"collect":{"column":2,"identifier":"SRC.V"}}},{"column":3,"path":"columns.SEQ.derivation.row_number","expression":{"number":{"kind":"row_number","group_by":[1],"order_by":[{"column":2,"descending":false,"nulls_first":true}]}}},{"column":4,"path":"columns.RANK.derivation.rank","expression":{"number":{"kind":"competition","group_by":[1],"order_by":[{"column":2,"descending":false,"nulls_first":true}]}}},{"column":5,"path":"columns.DENSE.derivation.rank","expression":{"number":{"kind":"dense","group_by":[1],"order_by":[{"column":2,"descending":false,"nulls_first":true}]}}}],"keys":[0],"verifications":[]}	{"protocol":"dataset/1","outcome":{"status":"success","verifications":[]}}	{"protocol":"table/1","columns":[["ID","int"],["G","str"],["V","int"],["SEQ","int"],["RANK","int"],["DENSE","int"]],"row_count":"6","chunks":["6"],"rows":[[{"int":"1"},{"str":"a"},{"int":"9007199254740992"},{"int":"2"},{"int":"2"},{"int":"2"}],[{"int":"2"},{"missing":null},{"missing":null},{"int":"1"},{"int":"1"},{"int":"1"}],[{"int":"3"},{"str":"a"},{"int":"9007199254740993"},{"int":"3"},{"int":"3"},{"int":"3"}],[{"int":"4"},{"str":"a"},{"missing":null},{"int":"1"},{"int":"1"},{"int":"1"}],[{"int":"5"},{"missing":null},{"missing":null},{"int":"2"},{"int":"1"},{"int":"1"}],[{"int":"6"},{"str":"a"},{"int":"9007199254740993"},{"int":"4"},{"int":"3"},{"int":"3"}]]}
numbering_empty	numbering-empty.arrow	{"protocol":"dataset/1","source":[{"name":"ID","kind":"int"},{"name":"G","kind":"str"},{"name":"V","kind":"int"}],"output":[{"name":"ID","kind":"int"},{"name":"G","kind":"str"},{"name":"V","kind":"int"},{"name":"SEQ","kind":"int"},{"name":"RANK","kind":"int"},{"name":"DENSE","kind":"int"}],"templates":[{"mode":{"keys":null},"assignments":[{"column":0,"path":"columns.ID.derivation.source","expression":{"source":0}}]}],"columns":[{"column":1,"path":"columns.G.derivation.source","expression":{"collect":{"column":1,"identifier":"SRC.G"}}},{"column":2,"path":"columns.V.derivation.source","expression":{"collect":{"column":2,"identifier":"SRC.V"}}},{"column":3,"path":"columns.SEQ.derivation.row_number","expression":{"number":{"kind":"row_number","group_by":[1],"order_by":[{"column":2,"descending":true,"nulls_first":false}]}}},{"column":4,"path":"columns.RANK.derivation.rank","expression":{"number":{"kind":"competition","group_by":[1],"order_by":[{"column":2,"descending":true,"nulls_first":false}]}}},{"column":5,"path":"columns.DENSE.derivation.rank","expression":{"number":{"kind":"dense","group_by":[1],"order_by":[{"column":2,"descending":true,"nulls_first":false}]}}}],"keys":[0],"verifications":[]}	{"protocol":"dataset/1","outcome":{"status":"success","verifications":[]}}	{"protocol":"table/1","columns":[["ID","int"],["G","str"],["V","int"],["SEQ","int"],["RANK","int"],["DENSE","int"]],"row_count":"0","chunks":["0"],"rows":[]}
window_filter_truth_and_ties	numbering.arrow	{"protocol":"dataset/1","source":[{"name":"ID","kind":"int"},{"name":"G","kind":"str"},{"name":"V","kind":"int"}],"output":[{"name":"ID","kind":"int"},{"name":"G","kind":"str"},{"name":"V","kind":"int"},{"name":"SEQ","kind":"int"},{"name":"RANK","kind":"int"},{"name":"DENSE","kind":"int"}],"templates":[{"mode":{"keys":null},"assignments":[{"column":0,"path":"columns.ID.derivation.source","expression":{"source":0}}]}],"columns":[{"column":1,"path":"columns.G.derivation.source","expression":{"collect":{"column":1,"identifier":"SRC.G"}}},{"column":2,"path":"columns.V.derivation.source","expression":{"collect":{"column":2,"identifier":"SRC.V"}}},{"column":3,"path":"columns.SEQ.derivation.row_number","expression":{"number":{"kind":"row_number","group_by":[1],"order_by":[{"column":2,"descending":true,"nulls_first":false}],"filter":{"path":"columns.SEQ.derivation.row_number","text":"V > 9007199254740992","nodes":[{"compare":{"operator":"gt","left":{"identifier":"V"},"right":{"literal":{"int":"9007199254740992"}}}}],"root":0,"bindings":[{"name":"V","read":{"column":2}}]}}}},{"column":4,"path":"columns.RANK.derivation.rank","expression":{"number":{"kind":"competition","group_by":[1],"order_by":[{"column":2,"descending":true,"nulls_first":false}],"filter":{"path":"columns.RANK.derivation.rank","text":"V > 9007199254740992","nodes":[{"compare":{"operator":"gt","left":{"identifier":"V"},"right":{"literal":{"int":"9007199254740992"}}}}],"root":0,"bindings":[{"name":"V","read":{"column":2}}]}}}},{"column":5,"path":"columns.DENSE.derivation.rank","expression":{"number":{"kind":"dense","group_by":[1],"order_by":[{"column":2,"descending":true,"nulls_first":false}],"filter":{"path":"columns.DENSE.derivation.rank","text":"V > 9007199254740992","nodes":[{"compare":{"operator":"gt","left":{"identifier":"V"},"right":{"literal":{"int":"9007199254740992"}}}}],"root":0,"bindings":[{"name":"V","read":{"column":2}}]}}}}],"keys":[0],"verifications":[]}	{"protocol":"dataset/1","outcome":{"status":"success","verifications":[]}}	{"protocol":"table/1","columns":[["ID","int"],["G","str"],["V","int"],["SEQ","int"],["RANK","int"],["DENSE","int"]],"row_count":"6","chunks":["6"],"rows":[[{"int":"1"},{"str":"a"},{"int":"9007199254740992"},{"missing":null},{"missing":null},{"missing":null}],[{"int":"2"},{"missing":null},{"missing":null},{"missing":null},{"missing":null},{"missing":null}],[{"int":"3"},{"str":"a"},{"int":"9007199254740993"},{"int":"1"},{"int":"1"},{"int":"1"}],[{"int":"4"},{"str":"a"},{"missing":null},{"missing":null},{"missing":null},{"missing":null}],[{"int":"5"},{"missing":null},{"missing":null},{"missing":null},{"missing":null},{"missing":null}],[{"int":"6"},{"str":"a"},{"int":"9007199254740993"},{"int":"2"},{"int":"1"},{"int":"1"}]]}
window_filter_evaluation_condition	numbering.arrow	{"protocol":"dataset/1","source":[{"name":"ID","kind":"int"},{"name":"G","kind":"str"},{"name":"V","kind":"int"}],"output":[{"name":"ID","kind":"int"},{"name":"G","kind":"str"},{"name":"V","kind":"int"},{"name":"SEQ","kind":"int"},{"name":"RANK","kind":"int"},{"name":"DENSE","kind":"int"}],"templates":[{"mode":{"keys":null},"assignments":[{"column":0,"path":"columns.ID.derivation.source","expression":{"source":0}}]}],"columns":[{"column":1,"path":"columns.G.derivation.source","expression":{"collect":{"column":1,"identifier":"SRC.G"}}},{"column":2,"path":"columns.V.derivation.source","expression":{"collect":{"column":2,"identifier":"SRC.V"}}},{"column":3,"path":"columns.SEQ.derivation.row_number","expression":{"number":{"kind":"row_number","group_by":[1],"order_by":[{"column":2,"descending":true,"nulls_first":false}],"filter":{"path":"columns.SEQ.derivation.row_number","text":"G > 1","nodes":[{"compare":{"operator":"gt","left":{"identifier":"G"},"right":{"literal":{"int":"1"}}}}],"root":0,"bindings":[{"name":"G","read":{"column":1}}]}}}},{"column":4,"path":"columns.RANK.derivation.rank","expression":{"number":{"kind":"competition","group_by":[1],"order_by":[{"column":2,"descending":true,"nulls_first":false}],"filter":{"path":"columns.RANK.derivation.rank","text":"G > 1","nodes":[{"compare":{"operator":"gt","left":{"identifier":"G"},"right":{"literal":{"int":"1"}}}}],"root":0,"bindings":[{"name":"G","read":{"column":1}}]}}}},{"column":5,"path":"columns.DENSE.derivation.rank","expression":{"number":{"kind":"dense","group_by":[1],"order_by":[{"column":2,"descending":true,"nulls_first":false}],"filter":{"path":"columns.DENSE.derivation.rank","text":"G > 1","nodes":[{"compare":{"operator":"gt","left":{"identifier":"G"},"right":{"literal":{"int":"1"}}}}],"root":0,"bindings":[{"name":"G","read":{"column":1}}]}}}}],"keys":[0],"verifications":[]}	{"protocol":"dataset/1","outcome":{"status":"condition","diagnostic":{"phase":"validation","condition":"incompatible_input_type","requirement":"REQ-0190","spec_paths":["columns.SEQ.derivation.row_number"],"context":{"left_type":{"str":"str"},"right_type":{"str":"int"}},"operand_route":[]},"identity":null}}	null
window_filter_empty_skips_evaluation	numbering-empty.arrow	{"protocol":"dataset/1","source":[{"name":"ID","kind":"int"},{"name":"G","kind":"str"},{"name":"V","kind":"int"}],"output":[{"name":"ID","kind":"int"},{"name":"G","kind":"str"},{"name":"V","kind":"int"},{"name":"SEQ","kind":"int"},{"name":"RANK","kind":"int"},{"name":"DENSE","kind":"int"}],"templates":[{"mode":{"keys":null},"assignments":[{"column":0,"path":"columns.ID.derivation.source","expression":{"source":0}}]}],"columns":[{"column":1,"path":"columns.G.derivation.source","expression":{"collect":{"column":1,"identifier":"SRC.G"}}},{"column":2,"path":"columns.V.derivation.source","expression":{"collect":{"column":2,"identifier":"SRC.V"}}},{"column":3,"path":"columns.SEQ.derivation.row_number","expression":{"number":{"kind":"row_number","group_by":[1],"order_by":[{"column":2,"descending":true,"nulls_first":false}],"filter":{"path":"columns.SEQ.derivation.row_number","text":"G > 1","nodes":[{"compare":{"operator":"gt","left":{"identifier":"G"},"right":{"literal":{"int":"1"}}}}],"root":0,"bindings":[{"name":"G","read":{"column":1}}]}}}},{"column":4,"path":"columns.RANK.derivation.rank","expression":{"number":{"kind":"competition","group_by":[1],"order_by":[{"column":2,"descending":true,"nulls_first":false}],"filter":{"path":"columns.RANK.derivation.rank","text":"G > 1","nodes":[{"compare":{"operator":"gt","left":{"identifier":"G"},"right":{"literal":{"int":"1"}}}}],"root":0,"bindings":[{"name":"G","read":{"column":1}}]}}}},{"column":5,"path":"columns.DENSE.derivation.rank","expression":{"number":{"kind":"dense","group_by":[1],"order_by":[{"column":2,"descending":true,"nulls_first":false}],"filter":{"path":"columns.DENSE.derivation.rank","text":"G > 1","nodes":[{"compare":{"operator":"gt","left":{"identifier":"G"},"right":{"literal":{"int":"1"}}}}],"root":0,"bindings":[{"name":"G","read":{"column":1}}]}}}}],"keys":[0],"verifications":[]}	{"protocol":"dataset/1","outcome":{"status":"success","verifications":[]}}	{"protocol":"table/1","columns":[["ID","int"],["G","str"],["V","int"],["SEQ","int"],["RANK","int"],["DENSE","int"]],"row_count":"0","chunks":["0"],"rows":[]}
window_values_neighbors_and_carry	numbering.arrow	{"protocol":"dataset/1","source":[{"name":"ID","kind":"int"},{"name":"G","kind":"str"},{"name":"V","kind":"int"}],"output":[{"name":"ID","kind":"int"},{"name":"G","kind":"str"},{"name":"V","kind":"int"},{"name":"PREV","kind":"int"},{"name":"NEXT","kind":"int"},{"name":"LAST","kind":"int"},{"name":"CARRY","kind":"int"}],"templates":[{"mode":{"keys":null},"assignments":[{"column":0,"path":"columns.ID.derivation.source","expression":{"source":0}}]}],"columns":[{"column":1,"path":"columns.G.derivation.source","expression":{"collect":{"column":1,"identifier":"SRC.G"}}},{"column":2,"path":"columns.V.derivation.source","expression":{"collect":{"column":2,"identifier":"SRC.V"}}},{"column":3,"path":"columns.PREV.derivation.row_value","expression":{"window":{"kind":{"row_value":{"column":2,"offset":"-1"}},"group_by":[1],"order_by":[{"column":0,"descending":false,"nulls_first":false}]}}},{"column":4,"path":"columns.NEXT.derivation.row_value","expression":{"window":{"kind":{"row_value":{"column":2,"offset":"1"}},"group_by":[1],"order_by":[{"column":0,"descending":false,"nulls_first":false}]}}},{"column":5,"path":"columns.LAST.derivation.previous_non_missing","expression":{"window":{"kind":{"previous_non_missing":{"column":2}},"group_by":[1],"order_by":[{"column":0,"descending":false,"nulls_first":false}]}}},{"column":6,"path":"columns.CARRY.derivation.locf","expression":{"window":{"kind":{"locf":{"column":2}},"group_by":[1],"order_by":[{"column":0,"descending":false,"nulls_first":false}]}}}],"keys":[0],"verifications":[]}	{"protocol":"dataset/1","outcome":{"status":"success","verifications":[]}}	{"protocol":"table/1","columns":[["ID","int"],["G","str"],["V","int"],["PREV","int"],["NEXT","int"],["LAST","int"],["CARRY","int"]],"row_count":"6","chunks":["6"],"rows":[[{"int":"1"},{"str":"a"},{"int":"9007199254740992"},{"missing":null},{"int":"9007199254740993"},{"missing":null},{"int":"9007199254740992"}],[{"int":"2"},{"missing":null},{"missing":null},{"missing":null},{"missing":null},{"missing":null},{"missing":null}],[{"int":"3"},{"str":"a"},{"int":"9007199254740993"},{"int":"9007199254740992"},{"missing":null},{"int":"9007199254740992"},{"int":"9007199254740993"}],[{"int":"4"},{"str":"a"},{"missing":null},{"int":"9007199254740993"},{"int":"9007199254740993"},{"int":"9007199254740993"},{"int":"9007199254740993"}],[{"int":"5"},{"missing":null},{"missing":null},{"missing":null},{"missing":null},{"missing":null},{"missing":null}],[{"int":"6"},{"str":"a"},{"int":"9007199254740993"},{"missing":null},{"missing":null},{"int":"9007199254740993"},{"int":"9007199254740993"}]]}
window_values_filtered_donors	numbering.arrow	{"protocol":"dataset/1","source":[{"name":"ID","kind":"int"},{"name":"G","kind":"str"},{"name":"V","kind":"int"}],"output":[{"name":"ID","kind":"int"},{"name":"G","kind":"str"},{"name":"V","kind":"int"},{"name":"PREV","kind":"int"},{"name":"NEXT","kind":"int"},{"name":"LAST","kind":"int"},{"name":"CARRY","kind":"int"}],"templates":[{"mode":{"keys":null},"assignments":[{"column":0,"path":"columns.ID.derivation.source","expression":{"source":0}}]}],"columns":[{"column":1,"path":"columns.G.derivation.source","expression":{"collect":{"column":1,"identifier":"SRC.G"}}},{"column":2,"path":"columns.V.derivation.source","expression":{"collect":{"column":2,"identifier":"SRC.V"}}},{"column":3,"path":"columns.PREV.derivation.row_value","expression":{"window":{"kind":{"row_value":{"column":2,"offset":"-1"}},"group_by":[1],"order_by":[{"column":0,"descending":false,"nulls_first":false}],"filter":{"path":"columns.PREV.derivation.row_value","text":"ID <> 3","nodes":[{"compare":{"operator":"ne","left":{"identifier":"ID"},"right":{"literal":{"int":"3"}}}}],"root":0,"bindings":[{"name":"ID","read":{"column":0}}]}}}},{"column":4,"path":"columns.NEXT.derivation.row_value","expression":{"window":{"kind":{"row_value":{"column":2,"offset":"1"}},"group_by":[1],"order_by":[{"column":0,"descending":false,"nulls_first":false}],"filter":{"path":"columns.NEXT.derivation.row_value","text":"ID <> 3","nodes":[{"compare":{"operator":"ne","left":{"identifier":"ID"},"right":{"literal":{"int":"3"}}}}],"root":0,"bindings":[{"name":"ID","read":{"column":0}}]}}}},{"column":5,"path":"columns.LAST.derivation.previous_non_missing","expression":{"window":{"kind":{"previous_non_missing":{"column":2}},"group_by":[1],"order_by":[{"column":0,"descending":false,"nulls_first":false}],"filter":{"path":"columns.LAST.derivation.previous_non_missing","text":"ID <> 3","nodes":[{"compare":{"operator":"ne","left":{"identifier":"ID"},"right":{"literal":{"int":"3"}}}}],"root":0,"bindings":[{"name":"ID","read":{"column":0}}]}}}},{"column":6,"path":"columns.CARRY.derivation.locf","expression":{"window":{"kind":{"locf":{"column":2}},"group_by":[1],"order_by":[{"column":0,"descending":false,"nulls_first":false}],"filter":{"path":"columns.CARRY.derivation.locf","text":"ID <> 3","nodes":[{"compare":{"operator":"ne","left":{"identifier":"ID"},"right":{"literal":{"int":"3"}}}}],"root":0,"bindings":[{"name":"ID","read":{"column":0}}]}}}}],"keys":[0],"verifications":[]}	{"protocol":"dataset/1","outcome":{"status":"success","verifications":[]}}	{"protocol":"table/1","columns":[["ID","int"],["G","str"],["V","int"],["PREV","int"],["NEXT","int"],["LAST","int"],["CARRY","int"]],"row_count":"6","chunks":["6"],"rows":[[{"int":"1"},{"str":"a"},{"int":"9007199254740992"},{"missing":null},{"missing":null},{"missing":null},{"int":"9007199254740992"}],[{"int":"2"},{"missing":null},{"missing":null},{"missing":null},{"missing":null},{"missing":null},{"missing":null}],[{"int":"3"},{"str":"a"},{"int":"9007199254740993"},{"missing":null},{"missing":null},{"missing":null},{"missing":null}],[{"int":"4"},{"str":"a"},{"missing":null},{"int":"9007199254740992"},{"int":"9007199254740993"},{"int":"9007199254740992"},{"int":"9007199254740992"}],[{"int":"5"},{"missing":null},{"missing":null},{"missing":null},{"missing":null},{"missing":null},{"missing":null}],[{"int":"6"},{"str":"a"},{"int":"9007199254740993"},{"missing":null},{"missing":null},{"int":"9007199254740992"},{"int":"9007199254740993"}]]}
window_values_empty	numbering-empty.arrow	{"protocol":"dataset/1","source":[{"name":"ID","kind":"int"},{"name":"G","kind":"str"},{"name":"V","kind":"int"}],"output":[{"name":"ID","kind":"int"},{"name":"G","kind":"str"},{"name":"V","kind":"int"},{"name":"PREV","kind":"int"},{"name":"NEXT","kind":"int"},{"name":"LAST","kind":"int"},{"name":"CARRY","kind":"int"}],"templates":[{"mode":{"keys":null},"assignments":[{"column":0,"path":"columns.ID.derivation.source","expression":{"source":0}}]}],"columns":[{"column":1,"path":"columns.G.derivation.source","expression":{"collect":{"column":1,"identifier":"SRC.G"}}},{"column":2,"path":"columns.V.derivation.source","expression":{"collect":{"column":2,"identifier":"SRC.V"}}},{"column":3,"path":"columns.PREV.derivation.row_value","expression":{"window":{"kind":{"row_value":{"column":2,"offset":"-1"}},"group_by":[1],"order_by":[{"column":0,"descending":false,"nulls_first":false}]}}},{"column":4,"path":"columns.NEXT.derivation.row_value","expression":{"window":{"kind":{"row_value":{"column":2,"offset":"1"}},"group_by":[1],"order_by":[{"column":0,"descending":false,"nulls_first":false}]}}},{"column":5,"path":"columns.LAST.derivation.previous_non_missing","expression":{"window":{"kind":{"previous_non_missing":{"column":2}},"group_by":[1],"order_by":[{"column":0,"descending":false,"nulls_first":false}]}}},{"column":6,"path":"columns.CARRY.derivation.locf","expression":{"window":{"kind":{"locf":{"column":2}},"group_by":[1],"order_by":[{"column":0,"descending":false,"nulls_first":false}]}}}],"keys":[0],"verifications":[]}	{"protocol":"dataset/1","outcome":{"status":"success","verifications":[]}}	{"protocol":"table/1","columns":[["ID","int"],["G","str"],["V","int"],["PREV","int"],["NEXT","int"],["LAST","int"],["CARRY","int"]],"row_count":"0","chunks":["0"],"rows":[]}
window_values_extreme_offsets	numbering.arrow	{"protocol":"dataset/1","source":[{"name":"ID","kind":"int"},{"name":"G","kind":"str"},{"name":"V","kind":"int"}],"output":[{"name":"ID","kind":"int"},{"name":"G","kind":"str"},{"name":"V","kind":"int"},{"name":"PREV","kind":"int"},{"name":"NEXT","kind":"int"},{"name":"LAST","kind":"int"},{"name":"CARRY","kind":"int"}],"templates":[{"mode":{"keys":null},"assignments":[{"column":0,"path":"columns.ID.derivation.source","expression":{"source":0}}]}],"columns":[{"column":1,"path":"columns.G.derivation.source","expression":{"collect":{"column":1,"identifier":"SRC.G"}}},{"column":2,"path":"columns.V.derivation.source","expression":{"collect":{"column":2,"identifier":"SRC.V"}}},{"column":3,"path":"columns.PREV.derivation.row_value","expression":{"window":{"kind":{"row_value":{"column":2,"offset":"-9223372036854775808"}},"group_by":[1],"order_by":[{"column":0,"descending":false,"nulls_first":false}]}}},{"column":4,"path":"columns.NEXT.derivation.row_value","expression":{"window":{"kind":{"row_value":{"column":2,"offset":"9223372036854775807"}},"group_by":[1],"order_by":[{"column":0,"descending":false,"nulls_first":false}]}}},{"column":5,"path":"columns.LAST.derivation.previous_non_missing","expression":{"window":{"kind":{"previous_non_missing":{"column":2}},"group_by":[1],"order_by":[{"column":0,"descending":false,"nulls_first":false}]}}},{"column":6,"path":"columns.CARRY.derivation.locf","expression":{"window":{"kind":{"locf":{"column":2}},"group_by":[1],"order_by":[{"column":0,"descending":false,"nulls_first":false}]}}}],"keys":[0],"verifications":[]}	{"protocol":"dataset/1","outcome":{"status":"success","verifications":[]}}	{"protocol":"table/1","columns":[["ID","int"],["G","str"],["V","int"],["PREV","int"],["NEXT","int"],["LAST","int"],["CARRY","int"]],"row_count":"6","chunks":["6"],"rows":[[{"int":"1"},{"str":"a"},{"int":"9007199254740992"},{"missing":null},{"missing":null},{"missing":null},{"int":"9007199254740992"}],[{"int":"2"},{"missing":null},{"missing":null},{"missing":null},{"missing":null},{"missing":null},{"missing":null}],[{"int":"3"},{"str":"a"},{"int":"9007199254740993"},{"missing":null},{"missing":null},{"int":"9007199254740992"},{"int":"9007199254740993"}],[{"int":"4"},{"str":"a"},{"missing":null},{"missing":null},{"missing":null},{"int":"9007199254740993"},{"int":"9007199254740993"}],[{"int":"5"},{"missing":null},{"missing":null},{"missing":null},{"missing":null},{"missing":null},{"missing":null}],[{"int":"6"},{"str":"a"},{"int":"9007199254740993"},{"missing":null},{"missing":null},{"int":"9007199254740993"},{"int":"9007199254740993"}]]}
baseline_per_row_reference	baseline.arrow	{"protocol":"dataset/1","source":[{"name":"ID","kind":"int"},{"name":"G","kind":"str"},{"name":"D","kind":"date"},{"name":"R","kind":"date"}],"output":[{"name":"ID","kind":"int"},{"name":"G","kind":"str"},{"name":"D","kind":"date"},{"name":"R","kind":"date"},{"name":"BLFL","kind":"str"}],"templates":[{"mode":{"keys":null},"assignments":[{"column":0,"path":"columns.ID.derivation.source","expression":{"source":0}}]}],"columns":[{"column":1,"path":"columns.G.derivation.source","expression":{"collect":{"column":1,"identifier":"SRC.G"}}},{"column":2,"path":"columns.D.derivation.source","expression":{"collect":{"column":2,"identifier":"SRC.D"}}},{"column":3,"path":"columns.R.derivation.source","expression":{"collect":{"column":3,"identifier":"SRC.R"}}},{"column":4,"path":"columns.BLFL.derivation.baseline_flag","expression":{"window":{"kind":{"baseline_flag":{"date":2,"reference_date":3}},"group_by":[1],"order_by":[]}}}],"keys":[0],"verifications":[]}	{"protocol":"dataset/1","outcome":{"status":"success","verifications":[]}}	{"protocol":"table/1","columns":[["ID","int"],["G","str"],["D","date"],["R","date"],["BLFL","str"]],"row_count":"6","chunks":["6"],"rows":[[{"int":"1"},{"missing":null},{"date":{"text":"2025-01-01","precision":"day"}},{"date":{"text":"2025-01-03","precision":"day"}},{"str":"Y"}],[{"int":"2"},{"missing":null},{"date":{"text":"2025-01-03","precision":"day"}},{"date":{"text":"2025-01-02","precision":"day"}},{"missing":null}],[{"int":"3"},{"missing":null},{"missing":null},{"date":{"text":"2025-01-03","precision":"day"}},{"missing":null}],[{"int":"4"},{"str":"b"},{"date":{"text":"2025-01-02","precision":"day"}},{"missing":null},{"missing":null}],[{"int":"5"},{"str":"b"},{"date":{"text":"2025-01-02","precision":"day"}},{"date":{"text":"2025-01-02","precision":"day"}},{"missing":null}],[{"int":"6"},{"str":"b"},{"date":{"text":"2025-01-03","precision":"day"}},{"date":{"text":"2025-01-03","precision":"day"}},{"str":"Y"}]]}
baseline_ambiguous_partition	baseline-tie.arrow	{"protocol":"dataset/1","source":[{"name":"ID","kind":"int"},{"name":"G","kind":"str"},{"name":"D","kind":"date"},{"name":"R","kind":"date"}],"output":[{"name":"ID","kind":"int"},{"name":"G","kind":"str"},{"name":"D","kind":"date"},{"name":"R","kind":"date"},{"name":"BLFL","kind":"str"}],"templates":[{"mode":{"keys":null},"assignments":[{"column":0,"path":"columns.ID.derivation.source","expression":{"source":0}}]}],"columns":[{"column":1,"path":"columns.G.derivation.source","expression":{"collect":{"column":1,"identifier":"SRC.G"}}},{"column":2,"path":"columns.D.derivation.source","expression":{"collect":{"column":2,"identifier":"SRC.D"}}},{"column":3,"path":"columns.R.derivation.source","expression":{"collect":{"column":3,"identifier":"SRC.R"}}},{"column":4,"path":"columns.BLFL.derivation.baseline_flag","expression":{"window":{"kind":{"baseline_flag":{"date":2,"reference_date":3}},"group_by":[1],"order_by":[]}}}],"keys":[0],"verifications":[]}	{"protocol":"dataset/1","outcome":{"status":"condition","diagnostic":{"phase":"derivation","condition":"ambiguous_baseline","requirement":"REQ-0322","spec_paths":["columns.BLFL.derivation.baseline_flag"],"context":{"column":{"str":"BLFL"},"date":{"str":"2025-01-01"},"match_count":{"int":"3"},"operation":{"str":"baseline_flag"}}},"identity":null,"partition":[{"name":"G","value":{"missing":null}}]}}	null
baseline_filtered_tie	baseline-tie.arrow	{"protocol":"dataset/1","source":[{"name":"ID","kind":"int"},{"name":"G","kind":"str"},{"name":"D","kind":"date"},{"name":"R","kind":"date"}],"output":[{"name":"ID","kind":"int"},{"name":"G","kind":"str"},{"name":"D","kind":"date"},{"name":"R","kind":"date"},{"name":"BLFL","kind":"str"}],"templates":[{"mode":{"keys":null},"assignments":[{"column":0,"path":"columns.ID.derivation.source","expression":{"source":0}}]}],"columns":[{"column":1,"path":"columns.G.derivation.source","expression":{"collect":{"column":1,"identifier":"SRC.G"}}},{"column":2,"path":"columns.D.derivation.source","expression":{"collect":{"column":2,"identifier":"SRC.D"}}},{"column":3,"path":"columns.R.derivation.source","expression":{"collect":{"column":3,"identifier":"SRC.R"}}},{"column":4,"path":"columns.BLFL.derivation.baseline_flag","expression":{"window":{"kind":{"baseline_flag":{"date":2,"reference_date":3}},"group_by":[1],"order_by":[],"filter":{"path":"columns.BLFL.derivation.baseline_flag","text":"ID > 2","nodes":[{"compare":{"operator":"gt","left":{"identifier":"ID"},"right":{"literal":{"int":"2"}}}}],"root":0,"bindings":[{"name":"ID","read":{"column":0}}]}}}}],"keys":[0],"verifications":[]}	{"protocol":"dataset/1","outcome":{"status":"success","verifications":[]}}	{"protocol":"table/1","columns":[["ID","int"],["G","str"],["D","date"],["R","date"],["BLFL","str"]],"row_count":"6","chunks":["6"],"rows":[[{"int":"1"},{"missing":null},{"date":{"text":"2025-01-01","precision":"day"}},{"date":{"text":"2025-01-03","precision":"day"}},{"missing":null}],[{"int":"2"},{"missing":null},{"date":{"text":"2025-01-01","precision":"day"}},{"date":{"text":"2025-01-03","precision":"day"}},{"missing":null}],[{"int":"3"},{"missing":null},{"date":{"text":"2025-01-01","precision":"day"}},{"date":{"text":"2025-01-03","precision":"day"}},{"str":"Y"}],[{"int":"4"},{"str":"b"},{"date":{"text":"2025-01-02","precision":"day"}},{"missing":null},{"missing":null}],[{"int":"5"},{"str":"b"},{"date":{"text":"2025-01-02","precision":"day"}},{"date":{"text":"2025-01-02","precision":"day"}},{"missing":null}],[{"int":"6"},{"str":"b"},{"date":{"text":"2025-01-03","precision":"day"}},{"date":{"text":"2025-01-03","precision":"day"}},{"str":"Y"}]]}
baseline_empty	baseline-empty.arrow	{"protocol":"dataset/1","source":[{"name":"ID","kind":"int"},{"name":"G","kind":"str"},{"name":"D","kind":"date"},{"name":"R","kind":"date"}],"output":[{"name":"ID","kind":"int"},{"name":"G","kind":"str"},{"name":"D","kind":"date"},{"name":"R","kind":"date"},{"name":"BLFL","kind":"str"}],"templates":[{"mode":{"keys":null},"assignments":[{"column":0,"path":"columns.ID.derivation.source","expression":{"source":0}}]}],"columns":[{"column":1,"path":"columns.G.derivation.source","expression":{"collect":{"column":1,"identifier":"SRC.G"}}},{"column":2,"path":"columns.D.derivation.source","expression":{"collect":{"column":2,"identifier":"SRC.D"}}},{"column":3,"path":"columns.R.derivation.source","expression":{"collect":{"column":3,"identifier":"SRC.R"}}},{"column":4,"path":"columns.BLFL.derivation.baseline_flag","expression":{"window":{"kind":{"baseline_flag":{"date":2,"reference_date":3}},"group_by":[1],"order_by":[]}}}],"keys":[0],"verifications":[]}	{"protocol":"dataset/1","outcome":{"status":"success","verifications":[]}}	{"protocol":"table/1","columns":[["ID","int"],["G","str"],["D","date"],["R","date"],["BLFL","str"]],"row_count":"0","chunks":["0"],"rows":[]}
root_filter_feeding_memberships	root-filter.arrow	{"protocol":"dataset/1","source":[{"name":"ID","kind":"str"},{"name":"V","kind":"str"},{"name":"KEEP","kind":"int"}],"output":[{"name":"ID","kind":"int"},{"name":"V","kind":"str"}],"templates":[{"mode":{"keys":null},"assignments":[{"column":0,"path":"columns.ID.derivation.source","expression":{"source":0}}],"filter":{"path":"filter","text":"SRC.KEEP > 0","nodes":[{"compare":{"operator":"gt","left":{"identifier":"SRC.KEEP"},"right":{"literal":{"int":"0"}}}}],"root":0,"bindings":[{"name":"SRC.KEEP","read":{"source":2}}]}}],"columns":[{"column":1,"path":"columns.V.derivation.source","expression":{"collect":{"column":1,"identifier":"SRC.V"}}}],"keys":[0],"verifications":[]}	{"protocol":"dataset/1","outcome":{"status":"success","verifications":[]}}	{"protocol":"table/1","columns":[["ID","int"],["V","str"]],"row_count":"2","chunks":["2"],"rows":[[{"int":"2"},{"str":"seven"}],[{"int":"1"},{"str":"eight"}]]}
root_filter_excludes_bad_keys	root-filter.arrow	{"protocol":"dataset/1","source":[{"name":"ID","kind":"str"},{"name":"V","kind":"str"},{"name":"KEEP","kind":"int"}],"output":[{"name":"ID","kind":"int"},{"name":"V","kind":"str"}],"templates":[{"mode":{"keys":null},"assignments":[{"column":0,"path":"columns.ID.derivation.source","expression":{"source":0}}],"filter":{"path":"filter","text":"FALSE","nodes":[{"boolean":false}],"root":0,"bindings":[]}}],"columns":[{"column":1,"path":"columns.V.derivation.source","expression":{"collect":{"column":1,"identifier":"SRC.V"}}}],"keys":[0],"verifications":[]}	{"protocol":"dataset/1","outcome":{"status":"success","verifications":[]}}	{"protocol":"table/1","columns":[["ID","int"],["V","str"]],"row_count":"0","chunks":["0"],"rows":[]}
root_filter_condition_before_keys	root-filter.arrow	{"protocol":"dataset/1","source":[{"name":"ID","kind":"str"},{"name":"V","kind":"str"},{"name":"KEEP","kind":"int"}],"output":[{"name":"ID","kind":"int"},{"name":"V","kind":"str"}],"templates":[{"mode":{"keys":null},"assignments":[{"column":0,"path":"columns.ID.derivation.source","expression":{"source":0}}],"filter":{"path":"filter","text":"SRC.KEEP > 'bad'","nodes":[{"compare":{"operator":"gt","left":{"identifier":"SRC.KEEP"},"right":{"literal":{"str":"bad"}}}}],"root":0,"bindings":[{"name":"SRC.KEEP","read":{"source":2}}]}}],"columns":[{"column":1,"path":"columns.V.derivation.source","expression":{"collect":{"column":1,"identifier":"SRC.V"}}}],"keys":[0],"verifications":[]}	{"protocol":"dataset/1","outcome":{"status":"condition","diagnostic":{"phase":"validation","condition":"incompatible_input_type","requirement":"REQ-0190","spec_paths":["filter"],"context":{"left_type":{"str":"int"},"right_type":{"str":"str"}},"operand_route":[]},"identity":null}}	null
root_filter_empty_skips_predicate	root-filter-empty.arrow	{"protocol":"dataset/1","source":[{"name":"ID","kind":"str"},{"name":"V","kind":"str"},{"name":"KEEP","kind":"int"}],"output":[{"name":"ID","kind":"int"},{"name":"V","kind":"str"}],"templates":[{"mode":{"keys":null},"assignments":[{"column":0,"path":"columns.ID.derivation.source","expression":{"source":0}}],"filter":{"path":"filter","text":"SRC.KEEP > 'bad'","nodes":[{"compare":{"operator":"gt","left":{"identifier":"SRC.KEEP"},"right":{"literal":{"str":"bad"}}}}],"root":0,"bindings":[{"name":"SRC.KEEP","read":{"source":2}}]}}],"columns":[{"column":1,"path":"columns.V.derivation.source","expression":{"collect":{"column":1,"identifier":"SRC.V"}}}],"keys":[0],"verifications":[]}	{"protocol":"dataset/1","outcome":{"status":"success","verifications":[]}}	{"protocol":"table/1","columns":[["ID","int"],["V","str"]],"row_count":"0","chunks":["0"],"rows":[]}
source_filter_retains_output_rows	source-filter.arrow	{"protocol":"dataset/1","source":[{"name":"ID","kind":"str"},{"name":"V","kind":"str"},{"name":"KEEP","kind":"int"}],"output":[{"name":"ID","kind":"int"},{"name":"V","kind":"int"}],"templates":[{"mode":{"keys":null},"assignments":[{"column":0,"path":"columns.ID.derivation.source","expression":{"source":0}}]}],"columns":[{"column":1,"path":"columns.V.derivation.source","expression":{"collect":{"column":1,"identifier":"SRC.V","filter":{"path":"columns.V.derivation.source","text":"SRC.KEEP > 0","nodes":[{"compare":{"operator":"gt","left":{"identifier":"SRC.KEEP"},"right":{"literal":{"int":"0"}}}}],"root":0,"bindings":[{"name":"SRC.KEEP","read":{"source":2}}]}}}}],"keys":[0],"verifications":[]}	{"protocol":"dataset/1","outcome":{"status":"success","verifications":[]}}	{"protocol":"table/1","columns":[["ID","int"],["V","int"]],"row_count":"2","chunks":["2"],"rows":[[{"int":"2"},{"int":"7"}],[{"int":"1"},{"missing":null}]]}
source_filter_no_donor	source-filter.arrow	{"protocol":"dataset/1","source":[{"name":"ID","kind":"str"},{"name":"V","kind":"str"},{"name":"KEEP","kind":"int"}],"output":[{"name":"ID","kind":"int"},{"name":"V","kind":"int"}],"templates":[{"mode":{"keys":null},"assignments":[{"column":0,"path":"columns.ID.derivation.source","expression":{"source":0}}]}],"columns":[{"column":1,"path":"columns.V.derivation.source","expression":{"collect":{"column":1,"identifier":"SRC.V","filter":{"path":"columns.V.derivation.source","text":"FALSE","nodes":[{"boolean":false}],"root":0,"bindings":[]}}}}],"keys":[0],"verifications":[]}	{"protocol":"dataset/1","outcome":{"status":"success","verifications":[]}}	{"protocol":"table/1","columns":[["ID","int"],["V","int"]],"row_count":"2","chunks":["2"],"rows":[[{"int":"2"},{"missing":null}],[{"int":"1"},{"missing":null}]]}
source_filter_primitive_condition	source-filter.arrow	{"protocol":"dataset/1","source":[{"name":"ID","kind":"str"},{"name":"V","kind":"str"},{"name":"KEEP","kind":"int"}],"output":[{"name":"ID","kind":"int"},{"name":"V","kind":"int"}],"templates":[{"mode":{"keys":null},"assignments":[{"column":0,"path":"columns.ID.derivation.source","expression":{"source":0}}]}],"columns":[{"column":1,"path":"columns.V.derivation.source","expression":{"collect":{"column":1,"identifier":"SRC.V","filter":{"path":"columns.V.derivation.source","text":"SRC.KEEP > 'bad'","nodes":[{"compare":{"operator":"gt","left":{"identifier":"SRC.KEEP"},"right":{"literal":{"str":"bad"}}}}],"root":0,"bindings":[{"name":"SRC.KEEP","read":{"source":2}}]}}}}],"keys":[0],"verifications":[]}	{"protocol":"dataset/1","outcome":{"status":"condition","diagnostic":{"phase":"validation","condition":"incompatible_input_type","requirement":"REQ-0190","spec_paths":["columns.V.derivation.source"],"context":{"left_type":{"str":"int"},"right_type":{"str":"str"}},"operand_route":[]},"identity":null}}	null
source_filter_empty_skips_predicate	source-filter-empty.arrow	{"protocol":"dataset/1","source":[{"name":"ID","kind":"str"},{"name":"V","kind":"str"},{"name":"KEEP","kind":"int"}],"output":[{"name":"ID","kind":"int"},{"name":"V","kind":"int"}],"templates":[{"mode":{"keys":null},"assignments":[{"column":0,"path":"columns.ID.derivation.source","expression":{"source":0}}]}],"columns":[{"column":1,"path":"columns.V.derivation.source","expression":{"collect":{"column":1,"identifier":"SRC.V","filter":{"path":"columns.V.derivation.source","text":"SRC.KEEP > 'bad'","nodes":[{"compare":{"operator":"gt","left":{"identifier":"SRC.KEEP"},"right":{"literal":{"str":"bad"}}}}],"root":0,"bindings":[{"name":"SRC.KEEP","read":{"source":2}}]}}}}],"keys":[0],"verifications":[]}	{"protocol":"dataset/1","outcome":{"status":"success","verifications":[]}}	{"protocol":"table/1","columns":[["ID","int"],["V","int"]],"row_count":"0","chunks":["0"],"rows":[]}
source_filter_distinct_values	source-filter.arrow	{"protocol":"dataset/1","source":[{"name":"ID","kind":"str"},{"name":"V","kind":"str"},{"name":"KEEP","kind":"int"}],"output":[{"name":"ID","kind":"int"},{"name":"V","kind":"int"}],"templates":[{"mode":{"keys":null},"assignments":[{"column":0,"path":"columns.ID.derivation.source","expression":{"source":0}}]}],"columns":[{"column":1,"path":"columns.V.derivation.source","expression":{"collect":{"column":1,"identifier":"SRC.V","filter":{"path":"columns.V.derivation.source","text":"TRUE","nodes":[{"boolean":true}],"root":0,"bindings":[]}}}}],"keys":[0],"verifications":[]}	{"protocol":"dataset/1","outcome":{"status":"condition","diagnostic":{"phase":"derivation","condition":"multiple_values_per_key","requirement":"REQ-0075","spec_paths":["columns.V.derivation.source"],"context":{"identifier":{"str":"SRC.V"},"value_count":{"int":"2"}}},"identity":{"position":"0","keys":[{"int":"2"}]}}}	null
source_order_first	source-filter.arrow	{"protocol":"dataset/1","source":[{"name":"ID","kind":"str"},{"name":"V","kind":"str"},{"name":"KEEP","kind":"int"}],"output":[{"name":"ID","kind":"int"},{"name":"V","kind":"int"}],"templates":[{"mode":{"keys":null},"assignments":[{"column":0,"path":"columns.ID.derivation.source","expression":{"source":0}}]}],"columns":[{"column":1,"path":"columns.V.derivation.source","expression":{"collect":{"column":1,"identifier":"SRC.V","selection":{"order_by":[{"column":2,"descending":false,"nulls_first":false}],"keep":"first"}}}}],"keys":[0],"verifications":[]}	{"protocol":"dataset/1","outcome":{"status":"success","verifications":[]},"handler_counts":[{"spec_path":"columns.V.derivation.source.multiple_matches","handler":"multiple_matches","count":"1"}]}	{"protocol":"table/1","columns":[["ID","int"],["V","int"]],"row_count":"2","chunks":["2"],"rows":[[{"int":"2"},{"int":"8"}],[{"int":"1"},{"int":"9"}]]}
source_order_last	source-filter.arrow	{"protocol":"dataset/1","source":[{"name":"ID","kind":"str"},{"name":"V","kind":"str"},{"name":"KEEP","kind":"int"}],"output":[{"name":"ID","kind":"int"},{"name":"V","kind":"int"}],"templates":[{"mode":{"keys":null},"assignments":[{"column":0,"path":"columns.ID.derivation.source","expression":{"source":0}}]}],"columns":[{"column":1,"path":"columns.V.derivation.source","expression":{"collect":{"column":1,"identifier":"SRC.V","selection":{"order_by":[{"column":2,"descending":false,"nulls_first":false}],"keep":"last"}}}}],"keys":[0],"verifications":[]}	{"protocol":"dataset/1","outcome":{"status":"success","verifications":[]},"handler_counts":[{"spec_path":"columns.V.derivation.source.multiple_matches","handler":"multiple_matches","count":"1"}]}	{"protocol":"table/1","columns":[["ID","int"],["V","int"]],"row_count":"2","chunks":["2"],"rows":[[{"int":"2"},{"int":"7"}],[{"int":"1"},{"int":"9"}]]}
source_order_filtered_unique	source-filter.arrow	{"protocol":"dataset/1","source":[{"name":"ID","kind":"str"},{"name":"V","kind":"str"},{"name":"KEEP","kind":"int"}],"output":[{"name":"ID","kind":"int"},{"name":"V","kind":"int"}],"templates":[{"mode":{"keys":null},"assignments":[{"column":0,"path":"columns.ID.derivation.source","expression":{"source":0}}]}],"columns":[{"column":1,"path":"columns.V.derivation.source","expression":{"collect":{"column":1,"identifier":"SRC.V","filter":{"path":"columns.V.derivation.source","text":"SRC.KEEP > 0","nodes":[{"compare":{"operator":"gt","left":{"identifier":"SRC.KEEP"},"right":{"literal":{"int":"0"}}}}],"root":0,"bindings":[{"name":"SRC.KEEP","read":{"source":2}}]},"selection":{"order_by":[{"column":2,"descending":false,"nulls_first":false}],"keep":"last"}}}}],"keys":[0],"verifications":[]}	{"protocol":"dataset/1","outcome":{"status":"success","verifications":[]}}	{"protocol":"table/1","columns":[["ID","int"],["V","int"]],"row_count":"2","chunks":["2"],"rows":[[{"int":"2"},{"int":"7"}],[{"int":"1"},{"missing":null}]]}
source_order_empty	source-filter-empty.arrow	{"protocol":"dataset/1","source":[{"name":"ID","kind":"str"},{"name":"V","kind":"str"},{"name":"KEEP","kind":"int"}],"output":[{"name":"ID","kind":"int"},{"name":"V","kind":"int"}],"templates":[{"mode":{"keys":null},"assignments":[{"column":0,"path":"columns.ID.derivation.source","expression":{"source":0}}]}],"columns":[{"column":1,"path":"columns.V.derivation.source","expression":{"collect":{"column":1,"identifier":"SRC.V","selection":{"order_by":[{"column":2,"descending":false,"nulls_first":false}],"keep":"last"}}}}],"keys":[0],"verifications":[]}	{"protocol":"dataset/1","outcome":{"status":"success","verifications":[]}}	{"protocol":"table/1","columns":[["ID","int"],["V","int"]],"row_count":"0","chunks":["0"],"rows":[]}
source_order_later_conversion	source-filter.arrow	{"protocol":"dataset/1","source":[{"name":"ID","kind":"str"},{"name":"V","kind":"str"},{"name":"KEEP","kind":"int"}],"output":[{"name":"ID","kind":"int"},{"name":"V","kind":"int"},{"name":"LATER","kind":"int"}],"templates":[{"mode":{"keys":null},"assignments":[{"column":0,"path":"columns.ID.derivation.source","expression":{"source":0}}]}],"columns":[{"column":1,"path":"columns.V.derivation.source","expression":{"collect":{"column":1,"identifier":"SRC.V","selection":{"order_by":[{"column":2,"descending":false,"nulls_first":false}],"keep":"last"}}}},{"column":2,"path":"columns.LATER.derivation.literal","expression":{"literal":{"str":"bad"}}}],"keys":[0],"verifications":[]}	{"protocol":"dataset/1","outcome":{"status":"condition","diagnostic":{"phase":"convert","condition":"conversion_failed","requirement":"REQ-0013","spec_paths":["columns.LATER"],"context":{"from":{"str":"str"},"to":{"str":"int"},"value":{"str":"bad"}}},"identity":{"position":"0","keys":[{"int":"2"}]}},"handler_counts":[{"spec_path":"columns.V.derivation.source.multiple_matches","handler":"multiple_matches","count":"1"}]}	null
