[
  {
    "case": "adlb",
    "input": "adlb.arrow",
    "request": {
      "protocol": "dataset/1",
      "source": [
        {
          "name": "STUDYID",
          "kind": "str"
        },
        {
          "name": "USUBJID",
          "kind": "str"
        },
        {
          "name": "LBSEQ",
          "kind": "str"
        },
        {
          "name": "LBTESTCD",
          "kind": "str"
        },
        {
          "name": "LBTEST",
          "kind": "str"
        },
        {
          "name": "VISIT",
          "kind": "str"
        },
        {
          "name": "LBSTRESN",
          "kind": "float"
        }
      ],
      "output": [
        {
          "name": "STUDYID",
          "kind": "str"
        },
        {
          "name": "USUBJID",
          "kind": "str"
        },
        {
          "name": "AVISIT",
          "kind": "str"
        },
        {
          "name": "PARAMCD",
          "kind": "str"
        },
        {
          "name": "PARAM",
          "kind": "str"
        },
        {
          "name": "AVAL",
          "kind": "float"
        },
        {
          "name": "DTYPE",
          "kind": "str"
        }
      ],
      "templates": [
        {
          "mode": {
            "records": null
          },
          "assignments": [
            {
              "column": 3,
              "path": "rows[0].derivations.PARAMCD.source",
              "expression": {
                "source": 3
              }
            },
            {
              "column": 4,
              "path": "rows[0].derivations.PARAM.source",
              "expression": {
                "source": 4
              }
            },
            {
              "column": 5,
              "path": "rows[0].derivations.AVAL.source",
              "expression": {
                "source": 6
              }
            },
            {
              "column": 6,
              "path": "rows[0].derivations.DTYPE.literal",
              "expression": {
                "literal": {
                  "missing": null
                }
              }
            }
          ]
        },
        {
          "mode": {
            "groups": [
              0,
              1,
              5
            ]
          },
          "assignments": [
            {
              "column": 3,
              "path": "rows[1].derivations.PARAMCD.literal",
              "expression": {
                "literal": {
                  "str": "TOTAL"
                }
              }
            },
            {
              "column": 4,
              "path": "rows[1].derivations.PARAM.literal",
              "expression": {
                "literal": {
                  "str": "Total of Components"
                }
              }
            },
            {
              "column": 5,
              "path": "rows[1].derivations.AVAL.aggregate",
              "expression": {
                "reduce": {
                  "column": 6,
                  "reducer": "SUM",
                  "text": "SUM(LB.LBSTRESN)"
                }
              }
            },
            {
              "column": 6,
              "path": "rows[1].derivations.DTYPE.literal",
              "expression": {
                "literal": {
                  "str": "CALCULATION"
                }
              }
            }
          ]
        }
      ],
      "columns": [
        {
          "column": 0,
          "path": "columns.STUDYID.derivation.source",
          "expression": {
            "source": 0
          }
        },
        {
          "column": 1,
          "path": "columns.USUBJID.derivation.source",
          "expression": {
            "source": 1
          }
        },
        {
          "column": 2,
          "path": "columns.AVISIT.derivation.source",
          "expression": {
            "source": 5
          }
        }
      ],
      "keys": [
        0,
        1,
        3,
        2
      ],
      "verifications": [
        {
          "path": "verifications[0].unique",
          "check": {
            "unique": [
              0,
              1,
              3,
              2
            ]
          }
        },
        {
          "path": "verifications[1].row_count",
          "check": {
            "row_count": {
              "min": "17",
              "max": "17"
            }
          }
        }
      ]
    },
    "expected": {
      "protocol": "dataset/1",
      "outcome": {
        "status": "success",
        "verifications": [
          {
            "spec_path": "verifications[0].unique",
            "condition": "unique_failed",
            "requirement": "REQ-0381",
            "evaluated_count": "17",
            "failed_count": "0",
            "output_rows": "17",
            "offending_rows": []
          },
          {
            "spec_path": "verifications[1].row_count",
            "condition": "row_count_failed",
            "requirement": "REQ-0385",
            "evaluated_count": "1",
            "failed_count": "0",
            "output_rows": "17",
            "offending_rows": []
          }
        ]
      }
    },
    "snapshot": {
      "protocol": "table/1",
      "columns": [
        [
          "STUDYID",
          "str"
        ],
        [
          "USUBJID",
          "str"
        ],
        [
          "AVISIT",
          "str"
        ],
        [
          "PARAMCD",
          "str"
        ],
        [
          "PARAM",
          "str"
        ],
        [
          "AVAL",
          "float"
        ],
        [
          "DTYPE",
          "str"
        ]
      ],
      "row_count": "17",
      "chunks": [
        "17"
      ],
      "rows": [
        [
          {
            "str": "YAMAA-01"
          },
          {
            "str": "YAMAA-01-101"
          },
          {
            "str": "WEEK 1"
          },
          {
            "str": "COMP1"
          },
          {
            "str": "Component 1"
          },
          {
            "float": "3fb999999999999a"
          },
          {
            "missing": null
          }
        ],
        [
          {
            "str": "YAMAA-01"
          },
          {
            "str": "YAMAA-01-101"
          },
          {
            "str": "WEEK 1"
          },
          {
            "str": "COMP2"
          },
          {
            "str": "Component 2"
          },
          {
            "float": "3fc999999999999a"
          },
          {
            "missing": null
          }
        ],
        [
          {
            "str": "YAMAA-01"
          },
          {
            "str": "YAMAA-01-101"
          },
          {
            "str": "WEEK 1"
          },
          {
            "str": "COMP3"
          },
          {
            "str": "Component 3"
          },
          {
            "float": "3fd3333333333333"
          },
          {
            "missing": null
          }
        ],
        [
          {
            "str": "YAMAA-01"
          },
          {
            "str": "YAMAA-01-102"
          },
          {
            "str": "WEEK 1"
          },
          {
            "str": "COMP3"
          },
          {
            "str": "Component 3"
          },
          {
            "float": "3fd3333333333333"
          },
          {
            "missing": null
          }
        ],
        [
          {
            "str": "YAMAA-01"
          },
          {
            "str": "YAMAA-01-102"
          },
          {
            "str": "WEEK 1"
          },
          {
            "str": "COMP2"
          },
          {
            "str": "Component 2"
          },
          {
            "float": "3fc999999999999a"
          },
          {
            "missing": null
          }
        ],
        [
          {
            "str": "YAMAA-01"
          },
          {
            "str": "YAMAA-01-102"
          },
          {
            "str": "WEEK 1"
          },
          {
            "str": "COMP1"
          },
          {
            "str": "Component 1"
          },
          {
            "float": "3fb999999999999a"
          },
          {
            "missing": null
          }
        ],
        [
          {
            "str": "YAMAA-01"
          },
          {
            "str": "YAMAA-01-103"
          },
          {
            "str": "WEEK 1"
          },
          {
            "str": "COMP1"
          },
          {
            "str": "Component 1"
          },
          {
            "float": "3fb999999999999a"
          },
          {
            "missing": null
          }
        ],
        [
          {
            "str": "YAMAA-01"
          },
          {
            "str": "YAMAA-01-104"
          },
          {
            "str": "WEEK 1"
          },
          {
            "str": "COMP1"
          },
          {
            "str": "Component 1"
          },
          {
            "float": "3fb999999999999a"
          },
          {
            "missing": null
          }
        ],
        [
          {
            "str": "YAMAA-01"
          },
          {
            "str": "YAMAA-01-104"
          },
          {
            "str": "WEEK 1"
          },
          {
            "str": "COMP2"
          },
          {
            "str": "Component 2"
          },
          {
            "missing": null
          },
          {
            "missing": null
          }
        ],
        [
          {
            "str": "YAMAA-01"
          },
          {
            "str": "YAMAA-01-104"
          },
          {
            "str": "WEEK 1"
          },
          {
            "str": "COMP3"
          },
          {
            "str": "Component 3"
          },
          {
            "float": "3fd3333333333333"
          },
          {
            "missing": null
          }
        ],
        [
          {
            "str": "YAMAA-01"
          },
          {
            "str": "YAMAA-01-105"
          },
          {
            "str": "WEEK 1"
          },
          {
            "str": "COMP1"
          },
          {
            "str": "Component 1"
          },
          {
            "missing": null
          },
          {
            "missing": null
          }
        ],
        [
          {
            "str": "YAMAA-01"
          },
          {
            "str": "YAMAA-01-105"
          },
          {
            "str": "WEEK 1"
          },
          {
            "str": "COMP2"
          },
          {
            "str": "Component 2"
          },
          {
            "missing": null
          },
          {
            "missing": null
          }
        ],
        [
          {
            "str": "YAMAA-01"
          },
          {
            "str": "YAMAA-01-101"
          },
          {
            "str": "WEEK 1"
          },
          {
            "str": "TOTAL"
          },
          {
            "str": "Total of Components"
          },
          {
            "float": "3fe3333333333334"
          },
          {
            "str": "CALCULATION"
          }
        ],
        [
          {
            "str": "YAMAA-01"
          },
          {
            "str": "YAMAA-01-102"
          },
          {
            "str": "WEEK 1"
          },
          {
            "str": "TOTAL"
          },
          {
            "str": "Total of Components"
          },
          {
            "float": "3fe3333333333333"
          },
          {
            "str": "CALCULATION"
          }
        ],
        [
          {
            "str": "YAMAA-01"
          },
          {
            "str": "YAMAA-01-103"
          },
          {
            "str": "WEEK 1"
          },
          {
            "str": "TOTAL"
          },
          {
            "str": "Total of Components"
          },
          {
            "float": "3fb999999999999a"
          },
          {
            "str": "CALCULATION"
          }
        ],
        [
          {
            "str": "YAMAA-01"
          },
          {
            "str": "YAMAA-01-104"
          },
          {
            "str": "WEEK 1"
          },
          {
            "str": "TOTAL"
          },
          {
            "str": "Total of Components"
          },
          {
            "float": "3fd999999999999a"
          },
          {
            "str": "CALCULATION"
          }
        ],
        [
          {
            "str": "YAMAA-01"
          },
          {
            "str": "YAMAA-01-105"
          },
          {
            "str": "WEEK 1"
          },
          {
            "str": "TOTAL"
          },
          {
            "str": "Total of Components"
          },
          {
            "missing": null
          },
          {
            "str": "CALCULATION"
          }
        ]
      ]
    }
  },
  {
    "case": "duplicate_keys",
    "input": "adlb.arrow",
    "request": {
      "protocol": "dataset/1",
      "source": [
        {
          "name": "STUDYID",
          "kind": "str"
        },
        {
          "name": "USUBJID",
          "kind": "str"
        },
        {
          "name": "LBSEQ",
          "kind": "str"
        },
        {
          "name": "LBTESTCD",
          "kind": "str"
        },
        {
          "name": "LBTEST",
          "kind": "str"
        },
        {
          "name": "VISIT",
          "kind": "str"
        },
        {
          "name": "LBSTRESN",
          "kind": "float"
        }
      ],
      "output": [
        {
          "name": "STUDYID",
          "kind": "str"
        },
        {
          "name": "USUBJID",
          "kind": "str"
        },
        {
          "name": "AVISIT",
          "kind": "str"
        },
        {
          "name": "PARAMCD",
          "kind": "str"
        },
        {
          "name": "PARAM",
          "kind": "str"
        },
        {
          "name": "AVAL",
          "kind": "float"
        },
        {
          "name": "DTYPE",
          "kind": "str"
        }
      ],
      "templates": [
        {
          "mode": {
            "records": null
          },
          "assignments": [
            {
              "column": 3,
              "path": "rows[0].derivations.PARAMCD.source",
              "expression": {
                "source": 3
              }
            },
            {
              "column": 4,
              "path": "rows[0].derivations.PARAM.source",
              "expression": {
                "source": 4
              }
            },
            {
              "column": 5,
              "path": "rows[0].derivations.AVAL.source",
              "expression": {
                "source": 6
              }
            },
            {
              "column": 6,
              "path": "rows[0].derivations.DTYPE.literal",
              "expression": {
                "literal": {
                  "missing": null
                }
              }
            }
          ]
        },
        {
          "mode": {
            "groups": [
              0,
              1,
              5
            ]
          },
          "assignments": [
            {
              "column": 3,
              "path": "rows[1].derivations.PARAMCD.literal",
              "expression": {
                "literal": {
                  "str": "TOTAL"
                }
              }
            },
            {
              "column": 4,
              "path": "rows[1].derivations.PARAM.literal",
              "expression": {
                "literal": {
                  "str": "Total of Components"
                }
              }
            },
            {
              "column": 5,
              "path": "rows[1].derivations.AVAL.aggregate",
              "expression": {
                "reduce": {
                  "column": 6,
                  "reducer": "SUM",
                  "text": "SUM(LB.LBSTRESN)"
                }
              }
            },
            {
              "column": 6,
              "path": "rows[1].derivations.DTYPE.literal",
              "expression": {
                "literal": {
                  "str": "CALCULATION"
                }
              }
            }
          ]
        }
      ],
      "columns": [
        {
          "column": 0,
          "path": "columns.STUDYID.derivation.source",
          "expression": {
            "source": 0
          }
        },
        {
          "column": 1,
          "path": "columns.USUBJID.derivation.source",
          "expression": {
            "source": 1
          }
        },
        {
          "column": 2,
          "path": "columns.AVISIT.derivation.source",
          "expression": {
            "source": 5
          }
        }
      ],
      "keys": [
        0
      ],
      "verifications": [
        {
          "path": "verifications[0].unique",
          "check": {
            "unique": [
              0,
              1,
              3,
              2
            ]
          }
        },
        {
          "path": "verifications[1].row_count",
          "check": {
            "row_count": {
              "min": "17",
              "max": "17"
            }
          }
        }
      ]
    },
    "expected": {
      "protocol": "dataset/1",
      "outcome": {
        "status": "failure",
        "phase": "output",
        "verifications": [
          {
            "spec_path": "keys",
            "condition": "duplicate_key",
            "requirement": "REQ-0240",
            "evaluated_count": "1",
            "failed_count": "1",
            "output_rows": "17",
            "offending_rows": [
              {
                "position": "0",
                "keys": [
                  {
                    "str": "YAMAA-01"
                  }
                ]
              }
            ]
          }
        ]
      }
    },
    "snapshot": null
  },
  {
    "case": "row_count",
    "input": "adlb.arrow",
    "request": {
      "protocol": "dataset/1",
      "source": [
        {
          "name": "STUDYID",
          "kind": "str"
        },
        {
          "name": "USUBJID",
          "kind": "str"
        },
        {
          "name": "LBSEQ",
          "kind": "str"
        },
        {
          "name": "LBTESTCD",
          "kind": "str"
        },
        {
          "name": "LBTEST",
          "kind": "str"
        },
        {
          "name": "VISIT",
          "kind": "str"
        },
        {
          "name": "LBSTRESN",
          "kind": "float"
        }
      ],
      "output": [
        {
          "name": "STUDYID",
          "kind": "str"
        },
        {
          "name": "USUBJID",
          "kind": "str"
        },
        {
          "name": "AVISIT",
          "kind": "str"
        },
        {
          "name": "PARAMCD",
          "kind": "str"
        },
        {
          "name": "PARAM",
          "kind": "str"
        },
        {
          "name": "AVAL",
          "kind": "float"
        },
        {
          "name": "DTYPE",
          "kind": "str"
        }
      ],
      "templates": [
        {
          "mode": {
            "records": null
          },
          "assignments": [
            {
              "column": 3,
              "path": "rows[0].derivations.PARAMCD.source",
              "expression": {
                "source": 3
              }
            },
            {
              "column": 4,
              "path": "rows[0].derivations.PARAM.source",
              "expression": {
                "source": 4
              }
            },
            {
              "column": 5,
              "path": "rows[0].derivations.AVAL.source",
              "expression": {
                "source": 6
              }
            },
            {
              "column": 6,
              "path": "rows[0].derivations.DTYPE.literal",
              "expression": {
                "literal": {
                  "missing": null
                }
              }
            }
          ]
        },
        {
          "mode": {
            "groups": [
              0,
              1,
              5
            ]
          },
          "assignments": [
            {
              "column": 3,
              "path": "rows[1].derivations.PARAMCD.literal",
              "expression": {
                "literal": {
                  "str": "TOTAL"
                }
              }
            },
            {
              "column": 4,
              "path": "rows[1].derivations.PARAM.literal",
              "expression": {
                "literal": {
                  "str": "Total of Components"
                }
              }
            },
            {
              "column": 5,
              "path": "rows[1].derivations.AVAL.aggregate",
              "expression": {
                "reduce": {
                  "column": 6,
                  "reducer": "SUM",
                  "text": "SUM(LB.LBSTRESN)"
                }
              }
            },
            {
              "column": 6,
              "path": "rows[1].derivations.DTYPE.literal",
              "expression": {
                "literal": {
                  "str": "CALCULATION"
                }
              }
            }
          ]
        }
      ],
      "columns": [
        {
          "column": 0,
          "path": "columns.STUDYID.derivation.source",
          "expression": {
            "source": 0
          }
        },
        {
          "column": 1,
          "path": "columns.USUBJID.derivation.source",
          "expression": {
            "source": 1
          }
        },
        {
          "column": 2,
          "path": "columns.AVISIT.derivation.source",
          "expression": {
            "source": 5
          }
        }
      ],
      "keys": [
        0,
        1,
        3,
        2
      ],
      "verifications": [
        {
          "path": "verifications[0].unique",
          "check": {
            "unique": [
              0,
              1,
              3,
              2
            ]
          }
        },
        {
          "path": "verifications[1].row_count",
          "check": {
            "row_count": {
              "min": "18",
              "max": "18"
            }
          }
        }
      ]
    },
    "expected": {
      "protocol": "dataset/1",
      "outcome": {
        "status": "failure",
        "phase": "verification",
        "verifications": [
          {
            "spec_path": "verifications[0].unique",
            "condition": "unique_failed",
            "requirement": "REQ-0381",
            "evaluated_count": "17",
            "failed_count": "0",
            "output_rows": "17",
            "offending_rows": []
          },
          {
            "spec_path": "verifications[1].row_count",
            "condition": "row_count_failed",
            "requirement": "REQ-0385",
            "evaluated_count": "1",
            "failed_count": "1",
            "output_rows": "17",
            "offending_rows": []
          }
        ]
      }
    },
    "snapshot": null
  },
  {
    "case": "conversion_before_keys",
    "input": "adlb.arrow",
    "request": {
      "protocol": "dataset/1",
      "source": [
        {
          "name": "STUDYID",
          "kind": "str"
        },
        {
          "name": "USUBJID",
          "kind": "str"
        },
        {
          "name": "LBSEQ",
          "kind": "str"
        },
        {
          "name": "LBTESTCD",
          "kind": "str"
        },
        {
          "name": "LBTEST",
          "kind": "str"
        },
        {
          "name": "VISIT",
          "kind": "str"
        },
        {
          "name": "LBSTRESN",
          "kind": "float"
        }
      ],
      "output": [
        {
          "name": "STUDYID",
          "kind": "str"
        },
        {
          "name": "USUBJID",
          "kind": "str"
        },
        {
          "name": "AVISIT",
          "kind": "str"
        },
        {
          "name": "PARAMCD",
          "kind": "str"
        },
        {
          "name": "PARAM",
          "kind": "str"
        },
        {
          "name": "AVAL",
          "kind": "float"
        },
        {
          "name": "DTYPE",
          "kind": "str"
        }
      ],
      "templates": [
        {
          "mode": {
            "records": null
          },
          "assignments": [
            {
              "column": 3,
              "path": "rows[0].derivations.PARAMCD.source",
              "expression": {
                "source": 3
              }
            },
            {
              "column": 4,
              "path": "rows[0].derivations.PARAM.source",
              "expression": {
                "source": 4
              }
            },
            {
              "column": 5,
              "path": "rows[0].derivations.AVAL.source",
              "expression": {
                "literal": {
                  "bool": true
                }
              }
            },
            {
              "column": 6,
              "path": "rows[0].derivations.DTYPE.literal",
              "expression": {
                "literal": {
                  "missing": null
                }
              }
            }
          ]
        },
        {
          "mode": {
            "groups": [
              0,
              1,
              5
            ]
          },
          "assignments": [
            {
              "column": 3,
              "path": "rows[1].derivations.PARAMCD.literal",
              "expression": {
                "literal": {
                  "str": "TOTAL"
                }
              }
            },
            {
              "column": 4,
              "path": "rows[1].derivations.PARAM.literal",
              "expression": {
                "literal": {
                  "str": "Total of Components"
                }
              }
            },
            {
              "column": 5,
              "path": "rows[1].derivations.AVAL.aggregate",
              "expression": {
                "reduce": {
                  "column": 6,
                  "reducer": "SUM",
                  "text": "SUM(LB.LBSTRESN)"
                }
              }
            },
            {
              "column": 6,
              "path": "rows[1].derivations.DTYPE.literal",
              "expression": {
                "literal": {
                  "str": "CALCULATION"
                }
              }
            }
          ]
        }
      ],
      "columns": [
        {
          "column": 0,
          "path": "columns.STUDYID.derivation.source",
          "expression": {
            "source": 0
          }
        },
        {
          "column": 1,
          "path": "columns.USUBJID.derivation.source",
          "expression": {
            "source": 1
          }
        },
        {
          "column": 2,
          "path": "columns.AVISIT.derivation.source",
          "expression": {
            "source": 5
          }
        }
      ],
      "keys": [
        0,
        1,
        3,
        2
      ],
      "verifications": [
        {
          "path": "verifications[0].unique",
          "check": {
            "unique": [
              0,
              1,
              3,
              2
            ]
          }
        },
        {
          "path": "verifications[1].row_count",
          "check": {
            "row_count": {
              "min": "17",
              "max": "17"
            }
          }
        }
      ]
    },
    "expected": {
      "protocol": "dataset/1",
      "outcome": {
        "status": "condition",
        "diagnostic": {
          "phase": "convert",
          "condition": "conversion_failed",
          "requirement": "REQ-0013",
          "spec_paths": [
            "columns.AVAL"
          ],
          "context": {
            "from": {
              "str": "bool"
            },
            "to": {
              "str": "float"
            },
            "value": {
              "bool": true
            }
          }
        },
        "identity": null
      }
    },
    "snapshot": null
  },
  {
    "case": "temporal_literals",
    "input": "adlb.arrow",
    "request": {
      "protocol": "dataset/1",
      "source": [
        {
          "name": "STUDYID",
          "kind": "str"
        },
        {
          "name": "USUBJID",
          "kind": "str"
        },
        {
          "name": "LBSEQ",
          "kind": "str"
        },
        {
          "name": "LBTESTCD",
          "kind": "str"
        },
        {
          "name": "LBTEST",
          "kind": "str"
        },
        {
          "name": "VISIT",
          "kind": "str"
        },
        {
          "name": "LBSTRESN",
          "kind": "float"
        }
      ],
      "output": [
        {
          "name": "STUDYID",
          "kind": "str"
        },
        {
          "name": "USUBJID",
          "kind": "str"
        },
        {
          "name": "AVISIT",
          "kind": "str"
        },
        {
          "name": "PARAMCD",
          "kind": "str"
        },
        {
          "name": "PARAM",
          "kind": "str"
        },
        {
          "name": "AVAL",
          "kind": "date"
        },
        {
          "name": "DTYPE",
          "kind": "str"
        }
      ],
      "templates": [
        {
          "mode": {
            "records": null
          },
          "assignments": [
            {
              "column": 3,
              "path": "rows[0].derivations.PARAMCD.source",
              "expression": {
                "source": 3
              }
            },
            {
              "column": 4,
              "path": "rows[0].derivations.PARAM.source",
              "expression": {
                "source": 4
              }
            },
            {
              "column": 5,
              "path": "rows[0].derivations.AVAL.source",
              "expression": {
                "literal": {
                  "date": {
                    "text": "2024-02-29",
                    "precision": "year"
                  }
                }
              }
            },
            {
              "column": 6,
              "path": "rows[0].derivations.DTYPE.literal",
              "expression": {
                "literal": {
                  "missing": null
                }
              }
            }
          ]
        },
        {
          "mode": {
            "groups": [
              0,
              1,
              5
            ]
          },
          "assignments": [
            {
              "column": 3,
              "path": "rows[1].derivations.PARAMCD.literal",
              "expression": {
                "literal": {
                  "str": "TOTAL"
                }
              }
            },
            {
              "column": 4,
              "path": "rows[1].derivations.PARAM.literal",
              "expression": {
                "literal": {
                  "str": "Total of Components"
                }
              }
            },
            {
              "column": 5,
              "path": "rows[1].derivations.AVAL.aggregate",
              "expression": {
                "literal": {
                  "date": {
                    "text": "2024-02-29",
                    "precision": "year"
                  }
                }
              }
            },
            {
              "column": 6,
              "path": "rows[1].derivations.DTYPE.literal",
              "expression": {
                "literal": {
                  "str": "CALCULATION"
                }
              }
            }
          ]
        }
      ],
      "columns": [
        {
          "column": 0,
          "path": "columns.STUDYID.derivation.source",
          "expression": {
            "source": 0
          }
        },
        {
          "column": 1,
          "path": "columns.USUBJID.derivation.source",
          "expression": {
            "source": 1
          }
        },
        {
          "column": 2,
          "path": "columns.AVISIT.derivation.source",
          "expression": {
            "source": 5
          }
        }
      ],
      "keys": [
        0,
        1,
        3,
        2
      ],
      "verifications": [
        {
          "path": "verifications[0].unique",
          "check": {
            "unique": [
              0,
              1,
              3,
              2
            ]
          }
        },
        {
          "path": "verifications[1].row_count",
          "check": {
            "row_count": {
              "min": "17",
              "max": "17"
            }
          }
        }
      ]
    },
    "expected": {
      "protocol": "dataset/1",
      "outcome": {
        "status": "success",
        "verifications": [
          {
            "spec_path": "verifications[0].unique",
            "condition": "unique_failed",
            "requirement": "REQ-0381",
            "evaluated_count": "17",
            "failed_count": "0",
            "output_rows": "17",
            "offending_rows": []
          },
          {
            "spec_path": "verifications[1].row_count",
            "condition": "row_count_failed",
            "requirement": "REQ-0385",
            "evaluated_count": "1",
            "failed_count": "0",
            "output_rows": "17",
            "offending_rows": []
          }
        ]
      }
    },
    "snapshot": {
      "protocol": "table/1",
      "columns": [
        [
          "STUDYID",
          "str"
        ],
        [
          "USUBJID",
          "str"
        ],
        [
          "AVISIT",
          "str"
        ],
        [
          "PARAMCD",
          "str"
        ],
        [
          "PARAM",
          "str"
        ],
        [
          "AVAL",
          "date"
        ],
        [
          "DTYPE",
          "str"
        ]
      ],
      "row_count": "17",
      "chunks": [
        "17"
      ],
      "rows": [
        [
          {
            "str": "YAMAA-01"
          },
          {
            "str": "YAMAA-01-101"
          },
          {
            "str": "WEEK 1"
          },
          {
            "str": "COMP1"
          },
          {
            "str": "Component 1"
          },
          {
            "date": {
              "text": "2024-02-29",
              "precision": "year"
            }
          },
          {
            "missing": null
          }
        ],
        [
          {
            "str": "YAMAA-01"
          },
          {
            "str": "YAMAA-01-101"
          },
          {
            "str": "WEEK 1"
          },
          {
            "str": "COMP2"
          },
          {
            "str": "Component 2"
          },
          {
            "date": {
              "text": "2024-02-29",
              "precision": "year"
            }
          },
          {
            "missing": null
          }
        ],
        [
          {
            "str": "YAMAA-01"
          },
          {
            "str": "YAMAA-01-101"
          },
          {
            "str": "WEEK 1"
          },
          {
            "str": "COMP3"
          },
          {
            "str": "Component 3"
          },
          {
            "date": {
              "text": "2024-02-29",
              "precision": "year"
            }
          },
          {
            "missing": null
          }
        ],
        [
          {
            "str": "YAMAA-01"
          },
          {
            "str": "YAMAA-01-102"
          },
          {
            "str": "WEEK 1"
          },
          {
            "str": "COMP3"
          },
          {
            "str": "Component 3"
          },
          {
            "date": {
              "text": "2024-02-29",
              "precision": "year"
            }
          },
          {
            "missing": null
          }
        ],
        [
          {
            "str": "YAMAA-01"
          },
          {
            "str": "YAMAA-01-102"
          },
          {
            "str": "WEEK 1"
          },
          {
            "str": "COMP2"
          },
          {
            "str": "Component 2"
          },
          {
            "date": {
              "text": "2024-02-29",
              "precision": "year"
            }
          },
          {
            "missing": null
          }
        ],
        [
          {
            "str": "YAMAA-01"
          },
          {
            "str": "YAMAA-01-102"
          },
          {
            "str": "WEEK 1"
          },
          {
            "str": "COMP1"
          },
          {
            "str": "Component 1"
          },
          {
            "date": {
              "text": "2024-02-29",
              "precision": "year"
            }
          },
          {
            "missing": null
          }
        ],
        [
          {
            "str": "YAMAA-01"
          },
          {
            "str": "YAMAA-01-103"
          },
          {
            "str": "WEEK 1"
          },
          {
            "str": "COMP1"
          },
          {
            "str": "Component 1"
          },
          {
            "date": {
              "text": "2024-02-29",
              "precision": "year"
            }
          },
          {
            "missing": null
          }
        ],
        [
          {
            "str": "YAMAA-01"
          },
          {
            "str": "YAMAA-01-104"
          },
          {
            "str": "WEEK 1"
          },
          {
            "str": "COMP1"
          },
          {
            "str": "Component 1"
          },
          {
            "date": {
              "text": "2024-02-29",
              "precision": "year"
            }
          },
          {
            "missing": null
          }
        ],
        [
          {
            "str": "YAMAA-01"
          },
          {
            "str": "YAMAA-01-104"
          },
          {
            "str": "WEEK 1"
          },
          {
            "str": "COMP2"
          },
          {
            "str": "Component 2"
          },
          {
            "date": {
              "text": "2024-02-29",
              "precision": "year"
            }
          },
          {
            "missing": null
          }
        ],
        [
          {
            "str": "YAMAA-01"
          },
          {
            "str": "YAMAA-01-104"
          },
          {
            "str": "WEEK 1"
          },
          {
            "str": "COMP3"
          },
          {
            "str": "Component 3"
          },
          {
            "date": {
              "text": "2024-02-29",
              "precision": "year"
            }
          },
          {
            "missing": null
          }
        ],
        [
          {
            "str": "YAMAA-01"
          },
          {
            "str": "YAMAA-01-105"
          },
          {
            "str": "WEEK 1"
          },
          {
            "str": "COMP1"
          },
          {
            "str": "Component 1"
          },
          {
            "date": {
              "text": "2024-02-29",
              "precision": "year"
            }
          },
          {
            "missing": null
          }
        ],
        [
          {
            "str": "YAMAA-01"
          },
          {
            "str": "YAMAA-01-105"
          },
          {
            "str": "WEEK 1"
          },
          {
            "str": "COMP2"
          },
          {
            "str": "Component 2"
          },
          {
            "date": {
              "text": "2024-02-29",
              "precision": "year"
            }
          },
          {
            "missing": null
          }
        ],
        [
          {
            "str": "YAMAA-01"
          },
          {
            "str": "YAMAA-01-101"
          },
          {
            "str": "WEEK 1"
          },
          {
            "str": "TOTAL"
          },
          {
            "str": "Total of Components"
          },
          {
            "date": {
              "text": "2024-02-29",
              "precision": "year"
            }
          },
          {
            "str": "CALCULATION"
          }
        ],
        [
          {
            "str": "YAMAA-01"
          },
          {
            "str": "YAMAA-01-102"
          },
          {
            "str": "WEEK 1"
          },
          {
            "str": "TOTAL"
          },
          {
            "str": "Total of Components"
          },
          {
            "date": {
              "text": "2024-02-29",
              "precision": "year"
            }
          },
          {
            "str": "CALCULATION"
          }
        ],
        [
          {
            "str": "YAMAA-01"
          },
          {
            "str": "YAMAA-01-103"
          },
          {
            "str": "WEEK 1"
          },
          {
            "str": "TOTAL"
          },
          {
            "str": "Total of Components"
          },
          {
            "date": {
              "text": "2024-02-29",
              "precision": "year"
            }
          },
          {
            "str": "CALCULATION"
          }
        ],
        [
          {
            "str": "YAMAA-01"
          },
          {
            "str": "YAMAA-01-104"
          },
          {
            "str": "WEEK 1"
          },
          {
            "str": "TOTAL"
          },
          {
            "str": "Total of Components"
          },
          {
            "date": {
              "text": "2024-02-29",
              "precision": "year"
            }
          },
          {
            "str": "CALCULATION"
          }
        ],
        [
          {
            "str": "YAMAA-01"
          },
          {
            "str": "YAMAA-01-105"
          },
          {
            "str": "WEEK 1"
          },
          {
            "str": "TOTAL"
          },
          {
            "str": "Total of Components"
          },
          {
            "date": {
              "text": "2024-02-29",
              "precision": "year"
            }
          },
          {
            "str": "CALCULATION"
          }
        ]
      ]
    }
  },
  {
    "case": "empty_literal",
    "input": "adlb-empty.arrow",
    "request": {
      "protocol": "dataset/1",
      "source": [
        {
          "name": "STUDYID",
          "kind": "str"
        },
        {
          "name": "USUBJID",
          "kind": "str"
        },
        {
          "name": "LBSEQ",
          "kind": "str"
        },
        {
          "name": "LBTESTCD",
          "kind": "str"
        },
        {
          "name": "LBTEST",
          "kind": "str"
        },
        {
          "name": "VISIT",
          "kind": "str"
        },
        {
          "name": "LBSTRESN",
          "kind": "float"
        }
      ],
      "output": [
        {
          "name": "STUDYID",
          "kind": "str"
        },
        {
          "name": "USUBJID",
          "kind": "str"
        },
        {
          "name": "AVISIT",
          "kind": "str"
        },
        {
          "name": "PARAMCD",
          "kind": "str"
        },
        {
          "name": "PARAM",
          "kind": "str"
        },
        {
          "name": "AVAL",
          "kind": "float"
        },
        {
          "name": "DTYPE",
          "kind": "str"
        }
      ],
      "templates": [
        {
          "mode": {
            "records": null
          },
          "assignments": [
            {
              "column": 3,
              "path": "rows[0].derivations.PARAMCD.source",
              "expression": {
                "source": 3
              }
            },
            {
              "column": 4,
              "path": "rows[0].derivations.PARAM.source",
              "expression": {
                "source": 4
              }
            },
            {
              "column": 5,
              "path": "rows[0].derivations.AVAL.source",
              "expression": {
                "literal": {
                  "bool": true
                }
              }
            },
            {
              "column": 6,
              "path": "rows[0].derivations.DTYPE.literal",
              "expression": {
                "literal": {
                  "missing": null
                }
              }
            }
          ]
        },
        {
          "mode": {
            "groups": [
              0,
              1,
              5
            ]
          },
          "assignments": [
            {
              "column": 3,
              "path": "rows[1].derivations.PARAMCD.literal",
              "expression": {
                "literal": {
                  "str": "TOTAL"
                }
              }
            },
            {
              "column": 4,
              "path": "rows[1].derivations.PARAM.literal",
              "expression": {
                "literal": {
                  "str": "Total of Components"
                }
              }
            },
            {
              "column": 5,
              "path": "rows[1].derivations.AVAL.aggregate",
              "expression": {
                "reduce": {
                  "column": 6,
                  "reducer": "SUM",
                  "text": "SUM(LB.LBSTRESN)"
                }
              }
            },
            {
              "column": 6,
              "path": "rows[1].derivations.DTYPE.literal",
              "expression": {
                "literal": {
                  "str": "CALCULATION"
                }
              }
            }
          ]
        }
      ],
      "columns": [
        {
          "column": 0,
          "path": "columns.STUDYID.derivation.source",
          "expression": {
            "source": 0
          }
        },
        {
          "column": 1,
          "path": "columns.USUBJID.derivation.source",
          "expression": {
            "source": 1
          }
        },
        {
          "column": 2,
          "path": "columns.AVISIT.derivation.source",
          "expression": {
            "source": 5
          }
        }
      ],
      "keys": [
        0,
        1,
        3,
        2
      ],
      "verifications": [
        {
          "path": "verifications[0].unique",
          "check": {
            "unique": [
              0,
              1,
              3,
              2
            ]
          }
        },
        {
          "path": "verifications[1].row_count",
          "check": {
            "row_count": {
              "min": "0",
              "max": "0"
            }
          }
        }
      ]
    },
    "expected": {
      "protocol": "dataset/1",
      "outcome": {
        "status": "success",
        "verifications": [
          {
            "spec_path": "verifications[0].unique",
            "condition": "unique_failed",
            "requirement": "REQ-0381",
            "evaluated_count": "0",
            "failed_count": "0",
            "output_rows": "0",
            "offending_rows": []
          },
          {
            "spec_path": "verifications[1].row_count",
            "condition": "row_count_failed",
            "requirement": "REQ-0385",
            "evaluated_count": "1",
            "failed_count": "0",
            "output_rows": "0",
            "offending_rows": []
          }
        ]
      }
    },
    "snapshot": {
      "protocol": "table/1",
      "columns": [
        [
          "STUDYID",
          "str"
        ],
        [
          "USUBJID",
          "str"
        ],
        [
          "AVISIT",
          "str"
        ],
        [
          "PARAMCD",
          "str"
        ],
        [
          "PARAM",
          "str"
        ],
        [
          "AVAL",
          "float"
        ],
        [
          "DTYPE",
          "str"
        ]
      ],
      "row_count": "0",
      "chunks": [
        "0"
      ],
      "rows": []
    }
  },
  {
    "case": "integer_overflow",
    "input": "integer-sum.arrow",
    "request": {
      "protocol": "dataset/1",
      "source": [
        {
          "name": "id",
          "kind": "int"
        },
        {
          "name": "x",
          "kind": "int"
        }
      ],
      "output": [
        {
          "name": "id",
          "kind": "int"
        },
        {
          "name": "x",
          "kind": "int"
        }
      ],
      "templates": [
        {
          "mode": {
            "groups": [
              0
            ]
          },
          "assignments": [
            {
              "column": 0,
              "path": "rows[0].derivations.id.source",
              "expression": {
                "source": 0
              }
            },
            {
              "column": 1,
              "path": "rows[0].derivations.x.aggregate",
              "expression": {
                "reduce": {
                  "column": 1,
                  "reducer": "SUM",
                  "text": "SUM(T.x)"
                }
              }
            }
          ]
        }
      ],
      "columns": [],
      "keys": [
        0
      ],
      "verifications": []
    },
    "expected": {
      "protocol": "dataset/1",
      "outcome": {
        "status": "condition",
        "diagnostic": {
          "phase": "derivation",
          "condition": "integer_overflow",
          "requirement": "REQ-0434",
          "spec_paths": [
            "rows[0].derivations.x.aggregate"
          ],
          "context": {
            "expr": {
              "str": "SUM(T.x)"
            },
            "maximum": {
              "int": "9223372036854775807"
            },
            "minimum": {
              "int": "-9223372036854775808"
            },
            "value": {
              "str": "9223372036854775808"
            }
          }
        },
        "identity": {
          "position": "0",
          "keys": [
            {
              "int": "5"
            }
          ]
        }
      }
    },
    "snapshot": null
  }
]
