STUDYID,USUBJID,PARAMCD,VSSEQ,VISIT,VISITNUM,ADT,ADY,AVAL,AVISIT,AVISITN,AWRANK,ANL01FL
CATH,CATH-UCSD-0001,SYSBP,1,SCREENING,1,2025-01-02,-6,128,SCREENING,-1,1,Y
CATH,CATH-UCSD-0001,SYSBP,2,BASELINE,2,2025-01-08,1,132,BASELINE,0,1,Y
CATH,CATH-UCSD-0001,SYSBP,3,UNSCHEDULED,,2025-01-15,8,145,WEEK 2,2,1,Y
CATH,CATH-UCSD-0001,SYSBP,4,WEEK 2,3,2025-01-22,15,138,WEEK 2,2,2,
CATH,CATH-UCSD-0001,SYSBP,5,WEEK 4,4,2025-02-05,29,130,WEEK 4,4,1,Y
CATH,CATH-UCSD-0001,SYSBP,6,WEEK 8,5,2025-03-08,60,126,POST-TREATMENT,99,1,Y
CATH,CATH-UCSD-0002,SYSBP,1,BASELINE,2,2025-02-08,1,118,BASELINE,0,1,Y
CATH,CATH-UCSD-0002,SYSBP,2,WEEK 2,3,2025-02-21,14,122,WEEK 2,2,1,Y
CATH,CATH-UCSD-0002,SYSBP,3,WEEK 4,4,,,120,,,1,
