schema_version: "1.0"
domain: DS
keys: [STUDYID, USUBJID, DSSEQ]
input:
  DS_RAW: input/ds_raw.csv

output:
  path: ds.csv
  columns: [DOMAIN, STUDYID, USUBJID, DSSEQ, DSDECOD, DSCAT, DSDTC]

columns:
  - name: DOMAIN
    type: str
    label: Domain Abbreviation
    derivation: {literal: DS}
    verifications:
      allowed_values:
        id: domain_allowed_values
        values: [DS]

  - name: STUDYID
    type: str
    label: Study Identifier
    derivation: DS_RAW.STUDY

  - name: USUBJID
    type: str
    label: Unique Subject Identifier
    derivation: DS_RAW.PATNUM

  - name: DSDTC
    type: date
    label: Date/Time of Collection
    derivation:
      date_impute:
        source: DS_RAW.DSDTCOL
        month: 6
        day: 15
        missing:
        invalid:

  # Number on the completed collection date so a partial entry takes
  # its chronological position among fully dated records.
  - name: DSSEQ
    type: int
    label: Sequence Number
    derivation:
      row_number:
        window:
          group_by: [STUDYID, USUBJID]
          order_by: [DSDTC]
    verifications:
      not_missing:
        id: dsseq_not_missing

  - name: DSDECOD
    type: str
    label: Standardized Disposition Term
    derivation: DS_RAW.DSDECOD
    verifications:
      - not_missing:
          id: dsdecod_not_missing
      - allowed_values:
          id: dsdecod_allowed_values
          values: [COMPLETED, RANDOMIZED, ADVERSE EVENT, SCREEN FAILURE]

  - name: DSCAT
    type: str
    label: Category for Disposition Event
    derivation:
      case:
        - when: "DSDECOD = 'RANDOMIZED'"
          then: {literal: PROTOCOL MILESTONE}
        - otherwise: {literal: DISPOSITION EVENT}
    verifications:
      allowed_values:
        id: dscat_allowed_values
        values: [PROTOCOL MILESTONE, DISPOSITION EVENT]

rows:
  - id: disposition
    derivations: {}

verifications:
  - unique:
      id: unique_studyid_usubjid_dsseq
      columns: [STUDYID, USUBJID, DSSEQ]
  - row_count:
      id: row_count
      min: 7
      max: 7
  - implies:
      id: randomized-record-is-a-milestone
      when: "DSDECOD = 'RANDOMIZED'"
      then: "DSCAT = 'PROTOCOL MILESTONE'"
  - implies:
      id: completion-record-is-a-disposition-event
      when: "DSDECOD = 'COMPLETED'"
      then: "DSCAT = 'DISPOSITION EVENT'"
