USUBJID,VSTESTCD,SEX,AGE,AGEGR1,RACE,ASEQ,VSSTRESN,VSSTRESU
01,SYSBP,M,42,<65,WHITE,1,120,mmHg
01,DIABP,M,42,<65,WHITE,2,80,mmHg
02,SYSBP,F,67,>=65,,3,138,mmHg
03,SYSBP,M,55,<65,ASIAN,4,110,mmHg
03,DIABP,M,55,<65,ASIAN,5,70,mmHg
