STUDYID,USUBJID,PARAMCD,PARAM,STARTDT,ADT,AVAL,CNSR,EVNTDESC,CNSDTDSC,SRCDOM,SRCVAR,SRCSEQ
PILOT8,P8-101,OS,Overall Survival,2026-01-01,2026-06-01,152,0,Death,,ADRS,ADT,1
PILOT8,P8-102,OS,Overall Survival,2026-01-01,2026-09-01,244,1,Alive,Alive During Study,ADSL,LSTALVDT,
PILOT8,P8-103,OS,Overall Survival,2026-01-01,2026-01-01,1,1,Randomization,Randomization,ADSL,RANDDT,
PILOT8,P8-104,OS,Overall Survival,2026-03-01,2026-03-01,1,1,Randomization,Randomization,ADSL,RANDDT,
PILOT8,P8-105,OS,Overall Survival,2026-04-01,2026-04-01,1,1,Randomization,Randomization,ADSL,RANDDT,
PILOT8,P8-106,OS,Overall Survival,2026-05-01,2026-05-01,1,0,Death,,ADRS,ADT,2
