STUDYID,USUBJID,LBSEQ,LBTESTCD,SEX,LBSTRESN,REPROGRADE
PILOT7,P7-401,1,ANC,M,1.6,1
PILOT7,P7-401,2,ANC,M,0.75,3
PILOT7,P7-402,1,ANC,F,0.08,4
PILOT7,P7-403,1,HGB,M,12.5,1
PILOT7,P7-404,1,HGB,F,12.5,0
PILOT7,P7-404,2,HGB,F,9,2
PILOT7,P7-405,1,ANC,F,0.5,3
PILOT7,P7-405,2,ANC,F,1.0,2
PILOT7,P7-405,3,ANC,F,1.5,1
PILOT7,P7-405,4,ANC,F,1.8,0
