DOMAIN,STUDYID,USUBJID,AESEQ,AETERM,AESEV,TXNTYPE,AUDITDTC
AE,CATH,CATH-UCSD-0001,1,HEADACHE,MODERATE,UPDATE,2025-01-12T14:00:00
AE,CATH,CATH-UCSD-0002,1,RASH,MILD,INSERT,2025-02-05T11:00:00
AE,CATH,CATH-UCSD-0002,2,PRURITUS,MODERATE,UPDATE,2025-02-06T09:00:00
