STUDYID,USUBJID,AESEQ,AETERM,AESTY,AESTM,AESTD,AEENDY,AEENDM,AEENDD
DEMO,DEMO-001,1,HEADACHE,2025,1,15,2025,1,20
DEMO,DEMO-001,2,NAUSEA,2025,2,,2025,2,25
DEMO,DEMO-002,1,ECZEMA FLARE,2025,,,2025,3,10
DEMO,DEMO-002,2,DIZZINESS,2025,2,15,2025,,
DEMO,DEMO-003,1,FATIGUE,2025,5,25,2025,5,28
DEMO,DEMO-003,2,RASH,2025,6,1,2025,6,5
DEMO,DEMO-004,1,COUGH,2025,4,10,2025,4,
DEMO,DEMO-004,2,INSOMNIA,2025,,15,2025,5,5
