STUDYID,USUBJID,AVISIT,AVISITN,ADT,RSSEQ,RSTESTCD,RSTEST,RSSTRESC,RSSTAT
PILOT7,P7-921,BASELINE,0,2025-01-05,1,TRGRESP,Timepoint Response,NE,
PILOT7,P7-921,WEEK 8,8,2025-03-02,2,TRGRESP,Timepoint Response,NE,
PILOT7,P7-922,BASELINE,0,2025-01-12,1,TRGRESP,Timepoint Response,NE,
PILOT7,P7-922,WEEK 8,8,2025-03-09,2,TRGRESP,Timepoint Response,PR,
PILOT7,P7-923,BASELINE,0,2025-01-19,1,TRGRESP,Timepoint Response,NE,
PILOT7,P7-923,WEEK 8,8,2025-03-16,2,TRGRESP,Timepoint Response,NE,
PILOT7,P7-924,BASELINE,0,2025-02-02,1,TRGRESP,Timepoint Response,,NOT DONE
PILOT7,P7-924,WEEK 8,8,2025-03-30,2,TRGRESP,Timepoint Response,,NOT DONE
