STUDYID,USUBJID,OESEQ,OETESTCD,OELAT,OESTRESN
KN189,KN189-101,1,IOP,LEFT,18
KN189,KN189-101,2,IOP,RIGHT,24
KN189,KN189-102,1,IOP,LEFT,16
KN189,KN189-102,2,IOP,RIGHT,15
KN189,KN189-103,1,IOP,LEFT,21
KN189,KN189-103,2,IOP,BILATERAL,
KN189,KN189-104,1,IOP,LEFT,19
