STUDYID,USUBJID,EXSEQ,EXTRT,EXDOSE,EXDOSU,EXSTDTC,EXENDTC,ADOSEN,NDOSE
PILOT7,P7-501,1,Study Drug,10,mg,2025-04-01,2025-04-01,1,1
PILOT7,P7-501,2,Study Drug,10,mg,2025-04-08,2025-04-09,1,2
PILOT7,P7-501,2,Study Drug,10,mg,2025-04-08,2025-04-09,2,2
PILOT7,P7-502,1,Study Drug,20,mg,2025-04-02,2025-04-06,1,5
PILOT7,P7-502,1,Study Drug,20,mg,2025-04-02,2025-04-06,2,5
PILOT7,P7-502,1,Study Drug,20,mg,2025-04-02,2025-04-06,3,5
PILOT7,P7-502,1,Study Drug,20,mg,2025-04-02,2025-04-06,4,5
PILOT7,P7-502,1,Study Drug,20,mg,2025-04-02,2025-04-06,5,5
