STUDYID,USUBJID,TUSEQ,LESION_CATEGORY,LESION_NUM,LOCATION,LATERALITY,METHOD,EVALUATOR,VISITNUM,VISIT,TUDTC
YAMAA-01,YAMAA-01-001,1,Target,01,Liver,Right,CT SCAN,INVESTIGATOR,1,SCREENING,2026-01-05
YAMAA-01,YAMAA-01-001,2,Target,02,Mediastinal lymph node,,CT SCAN,INVESTIGATOR,1,SCREENING,2026-01-05
YAMAA-01,YAMAA-01-001,3,Non-target,01,Lung,Left,CT SCAN,INVESTIGATOR,1,SCREENING,2026-01-05
YAMAA-01,YAMAA-01-001,4,New,01,Adrenal gland,Right,CT SCAN,INVESTIGATOR,4,WEEK 12,2026-03-30
YAMAA-01,YAMAA-01-002,1,Target,01,Liver,Left,CT SCAN,INVESTIGATOR,1,SCREENING,2026-01-12
YAMAA-01,YAMAA-01-002,2,Non-target,01,Bone,,CT SCAN,INVESTIGATOR,1,SCREENING,2026-01-12
