STUDYID,USUBJID,AESEQ,AESPID,AEREFNUM,AETERM,AETERMLO,AERELLC,AREL
CATH-01,CATH-01-001,1,AE-001,1,Headache,headache,related,RELATED
CATH-01,CATH-01-001,2,,0,HEADACHE,headache,possibly related,POSSIBLY RELATED
CATH-01,CATH-01-001,3,BAD-ID,-1,Nausea,nausea,not reported,NOT REPORTED
CATH-01,CATH-01-002,1,AE-104,104,Fatigue,fatigue,not related,NOT RELATED
CATH-01,CATH-01-002,2,,0,Dizziness,dizziness,not related,NOT RELATED
