DOMAIN,STUDYID,USUBJID,LBSEQ,LBTESTCD,LBTEST,LBSPEC,LBLOC,LBORRES,LBORRESU,LBSTRESN,LBSTAT
LB,CATH,CATH-UCSD-0001,1,IL13,Interleukin 13,SKIN,LESIONAL,4.2,pg/mL,4.2,
LB,CATH,CATH-UCSD-0002,1,IL13,Interleukin 13,SKIN,LESIONAL,,pg/mL,,NOT DONE
LB,CATH,CATH-UCSD-0001,2,IL13,Interleukin 13,SKIN,NON-LESIONAL,1.1,pg/mL,1.1,
LB,CATH,CATH-UCSD-0002,2,IL13,Interleukin 13,SKIN,NON-LESIONAL,0.9,pg/mL,0.9,
LB,CATH,CATH-UCSD-0003,1,IL13,Interleukin 13,SKIN,NON-LESIONAL,0.8,pg/mL,0.8,
