STUDYID,USUBJID,LBTESTCD,LBSTRESN,VISITNUM
YAMAA-01,YAMAA-01-101,ALB,4.0,1
YAMAA-01,YAMAA-01-101,ALB,4.5,2
YAMAA-01,YAMAA-01-101,ALB,5.5,4
YAMAA-01,YAMAA-01-101,ALB,7.0,5
YAMAA-01,YAMAA-01-102,ALB,4.0,1
YAMAA-01,YAMAA-01-102,ALB,,2
YAMAA-01,YAMAA-01-102,ALB,5.0,3
YAMAA-01,YAMAA-01-103,ALB,3.75,1
YAMAA-01,YAMAA-01-104,ALB,4.25,1
YAMAA-01,YAMAA-01-104,ALB,4.75,2
YAMAA-01,YAMAA-01-105,ALB,4.0,1
YAMAA-01,YAMAA-01-105,HGB,13.5,1
YAMAA-01,YAMAA-01-106,ALB,4.5,1
YAMAA-01,YAMAA-01-106,ALB,4.5,2
YAMAA-01,YAMAA-01-106,ALB,5.0,3
