schema_version: "1.0"
domain: ADAE
input:
  ADAEPRE: input/adae_pre.csv
keys: [STUDYID, USUBJID, AESEQ]

output:
  path: adae.csv
  columns: [STUDYID, USUBJID, AESEQ, AEBODSYS, AEDECOD, ASTDT, TRTEMFL, AOCCFL, AOCCSFL, AOCCPFL]

columns:
  - name: STUDYID
    type: str
    label: Study Identifier
    derivation:
      source: ADAEPRE.STUDYID

  - name: USUBJID
    type: str
    label: Unique Subject Identifier
    derivation:
      source: ADAEPRE.USUBJID

  - name: AESEQ
    type: int
    label: Sequence Number
    derivation:
      source: ADAEPRE.AESEQ

  - name: AEBODSYS
    type: str
    label: Body System or Organ Class
    derivation:
      source: ADAEPRE.AEBODSYS

  - name: AEDECOD
    type: str
    label: Dictionary-Derived Term
    derivation:
      source: ADAEPRE.AEDECOD

  - name: ASTDT
    type: date
    label: Analysis Start Date
    derivation:
      source: ADAEPRE.ASTDT

  - name: TRTEMFL
    type: str
    label: Treatment Emergent Analysis Flag
    derivation:
      source: ADAEPRE.TRTEMFL
    verifications:
      allowed_values:
        values: [Y]

  - name: AOCCSEQ
    type: int
    label: Subject Occurrence Sequence Number
    derivation:
      row_number:
        group_by: [STUDYID, USUBJID]
        order_by: [ASTDT, AESEQ]
        filter: "TRTEMFL = 'Y'"

  - name: AOCCSSEQ
    type: int
    label: Body System Occurrence Sequence Number
    derivation:
      row_number:
        group_by: [STUDYID, USUBJID, AEBODSYS]
        order_by: [ASTDT, AESEQ]
        filter: "TRTEMFL = 'Y'"

  - name: AOCCPSEQ
    type: int
    label: Preferred Term Occurrence Sequence Number
    derivation:
      row_number:
        group_by: [STUDYID, USUBJID, AEBODSYS, AEDECOD]
        order_by: [ASTDT, AESEQ]
        filter: "TRTEMFL = 'Y'"

  - name: AOCCFL
    type: str
    label: First Occurrence Within Subject Flag
    derivation:
      case:
        branches:
          - when: "AOCCSEQ = 1"
            then:
              literal: Y

  - name: AOCCSFL
    type: str
    label: First Occurrence of Body System Flag
    derivation:
      case:
        branches:
          - when: "AOCCSSEQ = 1"
            then:
              literal: Y

  - name: AOCCPFL
    type: str
    label: First Occurrence of Preferred Term Flag
    derivation:
      case:
        branches:
          - when: "AOCCPSEQ = 1"
            then:
              literal: Y

verifications:
  - unique:
      columns: [STUDYID, USUBJID, AESEQ]
  - row_count:
      min: 7
      max: 7
  - implies:
      id: occurrence-flag-requires-treatment-emergence
      when: "AOCCFL = 'Y' OR AOCCSFL = 'Y' OR AOCCPFL = 'Y'"
      then: "TRTEMFL = 'Y'"
