STUDYID,USUBJID,LBSEQ,LBTESTCD,LBTEST,LBORRES,LBORRESU,LBDTC
STUDY01,STUDY01-101,1,PROT,Protein,NEGATIVE,,2026-08-01
STUDY01,STUDY01-101,2,GLUC,Glucose,Neg,,2026-08-01
STUDY01,STUDY01-101,3,KETON,Ketones,TRACE,,2026-08-01
STUDY01,STUDY01-102,1,PROT,Protein,neg,,2026-08-03
STUDY01,STUDY01-102,2,GLUC,Glucose,tr,,2026-08-03
STUDY01,STUDY01-102,3,KETON,Ketones,Trace,,2026-08-03
STUDY01,STUDY01-103,1,PROT,Protein,1+,,2026-08-05
STUDY01,STUDY01-103,2,GLUC,Glucose,+1,,2026-08-05
STUDY01,STUDY01-103,3,KETON,Ketones,1 plus,,2026-08-05
STUDY01,STUDY01-104,1,PROT,Protein,2+,,2026-08-07
STUDY01,STUDY01-104,2,CREAT,Creatinine,<0.1,mg/dL,2026-08-07
STUDY01,STUDY01-104,3,CREAT,Creatinine,0.9,mg/dL,2026-08-07
STUDY01,STUDY01-105,1,CK,Creatine Kinase,>500,U/L,2026-08-09
STUDY01,STUDY01-105,2,GLUC,Glucose,+2,,2026-08-09
