STUDYID,USUBJID,DSSEQ,DSCAT,DSDECOD,DSSTDTC
CATH,CATH-UCSD-0001,1,DISPOSITION EVENT,COMPLETED,2025-01-29
CATH,CATH-UCSD-0002,1,DISPOSITION EVENT,ADVERSE EVENT,2025-02-21
CATH,CATH-UCSD-0002,2,PROTOCOL MILESTONE,WEEK 4 VISIT,2025-03-10
CATH,CATH-UCSD-0003,1,DISPOSITION EVENT,SCREEN FAILURE,2025-03-02
CATH2,CATH-UCSD-0001,1,DISPOSITION EVENT,COMPLETED,2025-05-20
