STUDYID,USUBJID,AESEQ,AEDECOD,ASTDT,DTHFL,DTHCAUS,DTHDT
KN189,KN189-101,1,HEART ATTACK,2024-02-15,Y,HEART ATTACK,2024-02-15
KN189,KN189-101,2,NAUSEA,2024-01-20,Y,HEART ATTACK,2024-02-15
KN189,KN189-102,1,HEART FAILURE,2024-03-01,Y,HEART FAILURE,2024-03-01
KN189,KN189-103,1,HEADACHE,2024-02-10,Y,,2024-03-10
KN189,KN189-104,1,DIZZINESS,2024-02-12,,,
KN189,KN189-105,1,HEART FAILURE,2024-02-20,Y,CARDIAC ARREST,2024-03-02
KN189,KN189-105,2,CARDIAC ARREST,2024-03-02,Y,CARDIAC ARREST,2024-03-02
KN189,KN189-106,1,RASH,2024-02-25,,,
