STUDYID,USUBJID,AESEQ,AEBODSYS,AEDECOD,ASTDT,AESEV,TRTEMFL,AESEVN,AWSEVFL
CATH,CATH-UCSD-0001,1,NERVOUS SYSTEM DISORDERS,HEADACHE,2025-01-12,MILD,Y,1,
CATH,CATH-UCSD-0001,2,NERVOUS SYSTEM DISORDERS,HEADACHE,2025-01-18,SEVERE,Y,3,Y
CATH,CATH-UCSD-0001,3,NERVOUS SYSTEM DISORDERS,HEADACHE,2025-01-20,MODERATE,Y,2,
CATH,CATH-UCSD-0001,4,GASTROINTESTINAL DISORDERS,NAUSEA,2025-01-15,MODERATE,Y,2,Y
CATH,CATH-UCSD-0001,5,SKIN AND SUBCUTANEOUS TISSUE DISORDERS,RASH,2025-01-05,SEVERE,,3,
CATH,CATH-UCSD-0002,1,NERVOUS SYSTEM DISORDERS,HEADACHE,2025-02-10,MODERATE,Y,2,Y
CATH,CATH-UCSD-0002,2,NERVOUS SYSTEM DISORDERS,HEADACHE,2025-02-10,MODERATE,Y,2,
CATH,CATH-UCSD-0002,3,GASTROINTESTINAL DISORDERS,NAUSEA,2025-02-12,,Y,,
