STUDYID,USUBJID,RSSEQ,RSTESTCD,RSEVAL,RSDTC,RSSTRESC
YAMAA-01,YAMAA-01-101,1,OVRLRESP,INVESTIGATOR,2025-02-03,PR
YAMAA-01,YAMAA-01-101,2,OVRLRESP,INVESTIGATOR,2025-03-17,CR
YAMAA-01,YAMAA-01-101,3,OVRLRESP,INVESTIGATOR,2025-04-28,PD
YAMAA-01,YAMAA-01-102,1,OVRLRESP,INVESTIGATOR,2025-02-10,SD
YAMAA-01,YAMAA-01-102,2,OVRLRESP,INVESTIGATOR,2025-02-10,PD
YAMAA-01,YAMAA-01-102,3,OVRLRESP,INVESTIGATOR,2025-03-24,NE
YAMAA-01,YAMAA-01-103,1,OVRLRESP,INVESTIGATOR,2025-03,NON-CR/NON-PD
YAMAA-01,YAMAA-01-104,1,OVRLRESP,INVESTIGATOR,2025-02-17,SD
YAMAA-01,YAMAA-01-104,2,OVRLRESP,INVESTIGATOR,2025-02-17,SD
YAMAA-01,YAMAA-01-105,1,TRGRESP,INVESTIGATOR,2025-05-05,PR
YAMAA-01,YAMAA-01-105,2,OVRLRESP,INDEPENDENT ASSESSOR,2025-05-05,PR
YAMAA-01,YAMAA-01-105,3,OVRLRESP,INVESTIGATOR,2025-05-05,CR
YAMAA-01,YAMAA-01-106,1,OVRLRESP,INVESTIGATOR,2025,PR
YAMAA-01,YAMAA-01-107,1,OVRLRESP,INVESTIGATOR,2025-01-06,CR
YAMAA-01,YAMAA-01-108,1,OVRLRESP,INVESTIGATOR,2025-02-10,SD
YAMAA-01,YAMAA-01-108,2,OVRLRESP,INVESTIGATOR,2025-02-10,PD
YAMAA-01,YAMAA-01-108,3,OVRLRESP,INVESTIGATOR,2025-02-10,NE
YAMAA-01,YAMAA-01-108,4,OVRLRESP,INVESTIGATOR,2025-02-10,NE
