STUDYID,USUBJID,EXSEQ,APERIOD,EXTRT,EXSTDTC,EXENDTC
CATH,CATH-UCSD-0001,1,1,VITAMIN D3,2025-01-06,2025-01-26
CATH,CATH-UCSD-0001,2,2,PLACEBO,2025-02-10,2025-03-02
CATH,CATH-UCSD-0002,1,1,PLACEBO,2025-01-08,2025-01-28
CATH,CATH-UCSD-0002,2,2,VITAMIN D3,2025-02-12,2025-03-04
CATH,CATH-UCSD-0003,1,1,VITAMIN D3,2025-01-10,2025-01-20
