schema_version: "1.0"
domain: ADSL
keys: [STUDYID, USUBJID]
input:
  DM: input/dm.csv
  CM: {path: input/cm.csv, types: {CMSEQ: int}}
base: DM

output:
  path: adsl.csv
  columns: [STUDYID, USUBJID, RESCTRT]

columns:
  - name: STUDYID
    type: str
    label: Study Identifier
    derivation: DM.STUDYID

  - name: USUBJID
    type: str
    label: Unique Subject Identifier
    derivation: DM.USUBJID

  # The subject's earliest rescue medication: smallest start date, then the
  # lower sequence number. No rescue record at all leaves it empty.
  - name: RESCTRT
    type: str
    label: Rescue Medication
    derivation:
      source:
        variable: CM.CMTRT
        filter: "CM.CMCAT = 'RESCUE MEDICATION'"
        order_by: [CM.CMSTDTC, CM.CMSEQ]
        keep: first

verifications:
  - row_count:
      min: 6
      max: 6
