STUDYID,USUBJID,AESEQ,AETERM,AESTDTC,ASTDT,ASTDTC,ASTDTF,TRTSDT,TRTEMFL
CATH,CATH-UCSD-0001,1,HEADACHE,2025-01-15,2025-01-15,2025-01-15,,2025-01-10,Y
CATH,CATH-UCSD-0001,2,NAUSEA,2025-01,2025-01-15,2025-01-15,D,2025-01-10,Y
CATH,CATH-UCSD-0001,3,ECZEMA FLARE,2025,,,,2025-01-10,
CATH,CATH-UCSD-0001,4,DIZZINESS,UNKNOWN,,,,2025-01-10,
CATH,CATH-UCSD-0001,5,FATIGUE,,,,,2025-01-10,
CATH,CATH-UCSD-0001,6,RASH,2025-02-20,2025-02-20,2025-02-20,,2025-01-10,Y
CATH,CATH-UCSD-0002,1,PYREXIA,2025-03,2025-03-20,2025-03-20,D,2025-03-20,Y
CATH,CATH-UCSD-0002,2,COUGH,2025-02,,,,2025-03-20,
CATH,CATH-UCSD-0002,3,INSOMNIA,2025-04-05,2025-04-05,2025-04-05,,2025-03-20,Y
CATH,CATH-UCSD-0002,4,MIGRAINE,2025-01-05,2025-01-05,2025-01-05,,2025-03-20,
CATH,CATH-UCSD-0001,7,FLUSHING,2025-01-10,2025-01-10,2025-01-10,,2025-01-10,Y
CATH,CATH-UCSD-0003,1,BACK PAIN,2025-04,2025-04-15,2025-04-15,D,,
CATH,CATH-UCSD-0004,1,VOMITING,2025-02,2025-02-15,2025-02-15,D,2025-02-15,Y
