DOMAIN,STUDYID,USUBJID,AESEQ,AETERM,AESTDTC,AEENDTC,AESEV,AESER
AE,YAMAA-01,YAMAA-01-0001,1,Headache,2025-01-02,2025-01-03,MILD,N
AE,YAMAA-01,YAMAA-01-0001,2,Nausea,2025-01-04,,MODERATE,N
AE,YAMAA-01,YAMAA-01-0001,3,Headache,2025-01-10,2025-01-11,MILD,N
AE,YAMAA-01,YAMAA-01-0002,1,Rash,2025-02-02,2025-02-05,SEVERE,Y
