STUDYID,USUBJID,PARAMCD,VSSEQ,VISIT,VISITNUM,ADT,ADY,AVAL
YAMAA-01,YAMAA-01-201,SYSBP,1,SCREENING,1,2025-01-02,-6,128
YAMAA-01,YAMAA-01-201,SYSBP,2,BASELINE,2,2025-01-08,1,132
YAMAA-01,YAMAA-01-201,SYSBP,3,UNSCHEDULED,,2025-01-15,8,145
YAMAA-01,YAMAA-01-201,SYSBP,4,WEEK 2,3,2025-01-22,15,138
YAMAA-01,YAMAA-01-201,SYSBP,5,WEEK 4,4,2025-02-05,29,130
YAMAA-01,YAMAA-01-201,SYSBP,6,WEEK 8,5,2025-03-08,60,126
YAMAA-01,YAMAA-01-201,SYSBP,7,UNSCHEDULED,,2025-01-09,2,134
YAMAA-01,YAMAA-01-201,SYSBP,8,WEEK 4,4,2025-01-29,22,131
YAMAA-01,YAMAA-01-202,SYSBP,1,BASELINE,2,2025-02-08,1,118
YAMAA-01,YAMAA-01-202,SYSBP,2,WEEK 2,3,2025-02-21,14,122
YAMAA-01,YAMAA-01-202,SYSBP,3,WEEK 4,4,,,120
YAMAA-01,YAMAA-01-202,SYSBP,4,UNSCHEDULED,,2025-02-21,14,119
YAMAA-01,YAMAA-01-202,SYSBP,5,WEEK 4,4,2025-03-01,22,124
YAMAA-01,YAMAA-01-202,SYSBP,6,FOLLOW-UP,6,2025-03-22,43,117
YAMAA-01,YAMAA-01-203,SYSBP,1,BASELINE,2,2025-03-08,1,121
