STUDYID,USUBJID,VISITNUM,VISIT,SVPRESP,SVOCCUR,SVSTDTC
YAMAA-01,YAMAA-01-201,1,SCREENING,Y,Y,2025-01-02
YAMAA-01,YAMAA-01-201,2,BASELINE,Y,Y,2025-01-08
YAMAA-01,YAMAA-01-201,,UNSCHEDULED,,Y,2025-01-09
YAMAA-01,YAMAA-01-201,,UNSCHEDULED,,Y,2025-01-15
YAMAA-01,YAMAA-01-201,3,WEEK 2,Y,Y,2025-01-22
YAMAA-01,YAMAA-01-201,4,WEEK 4,Y,Y,2025-01-29
YAMAA-01,YAMAA-01-201,5,WEEK 8,Y,Y,2025-03-08
YAMAA-01,YAMAA-01-202,1,SCREENING,Y,Y,2025-02-01
YAMAA-01,YAMAA-01-202,2,BASELINE,Y,Y,2025-02-08
YAMAA-01,YAMAA-01-202,3,WEEK 2,Y,Y,2025-02-21
YAMAA-01,YAMAA-01-202,,UNSCHEDULED,,Y,2025-02-21
YAMAA-01,YAMAA-01-202,4,WEEK 4,Y,Y,2025-03-01
YAMAA-01,YAMAA-01-202,6,FOLLOW-UP,Y,Y,2025-03-22
YAMAA-01,YAMAA-01-203,1,SCREENING,Y,Y,2025-03-01
YAMAA-01,YAMAA-01-203,2,BASELINE,Y,Y,2025-03-08
YAMAA-01,YAMAA-01-203,3,WEEK 2,Y,N,
YAMAA-01,YAMAA-01-203,4,WEEK 4,Y,N,
YAMAA-01,YAMAA-01-203,5,WEEK 8,Y,N,
