DOMAIN,STUDYID,USUBJID,DSSEQ,DSTERM,DSDECOD,DSCAT,DSSCAT,DSSTDTC
DS,YAMAA-01,YAMAA-01-001,1,INFORMED CONSENT OBTAINED,INFORMED CONSENT OBTAINED,PROTOCOL MILESTONE,INFORMED CONSENT,2024-01-05
DS,YAMAA-01,YAMAA-01-001,2,RANDOMIZED,RANDOMIZED,PROTOCOL MILESTONE,RANDOMIZATION,2024-01-05
DS,YAMAA-01,YAMAA-01-001,3,COMPLETED,COMPLETED,DISPOSITION EVENT,END OF TREATMENT,2024-06-10
DS,YAMAA-01,YAMAA-01-001,4,COMPLETED,COMPLETED,DISPOSITION EVENT,END OF STUDY,2024-07-15
DS,YAMAA-01,YAMAA-01-002,1,INFORMED CONSENT OBTAINED,INFORMED CONSENT OBTAINED,PROTOCOL MILESTONE,INFORMED CONSENT,2024-01-08
DS,YAMAA-01,YAMAA-01-002,2,RANDOMIZED,RANDOMIZED,PROTOCOL MILESTONE,RANDOMIZATION,2024-01-09
DS,YAMAA-01,YAMAA-01-002,3,Severe nausea,ADVERSE EVENT,DISPOSITION EVENT,END OF TREATMENT,2024-03-20
DS,YAMAA-01,YAMAA-01-002,4,Subject moved,LOST TO FOLLOW-UP,DISPOSITION EVENT,END OF STUDY,2024-03-25
DS,YAMAA-01,YAMAA-01-003,1,INFORMED CONSENT OBTAINED,INFORMED CONSENT OBTAINED,PROTOCOL MILESTONE,INFORMED CONSENT,2024-01-12
DS,YAMAA-01,YAMAA-01-003,2,SCREEN FAILURE,SCREEN FAILURE,DISPOSITION EVENT,END OF STUDY,2024-01-14
