STUDYID,USUBJID,PARAMCD,LBSEQ,ADT,ADY,AVAL,AVISIT,AWTARGET,ADIST,ANL01FL
CATH,CATH-UCSD-0001,ALT,1,2025-01-17,10,22,WEEK 2,15,5,
CATH,CATH-UCSD-0001,ALT,2,2025-01-27,20,26,WEEK 2,15,5,Y
CATH,CATH-UCSD-0001,ALT,3,2025-02-06,30,24,,,,
CATH,CATH-UCSD-0002,ALT,1,2025-02-19,12,31,WEEK 2,15,3,
CATH,CATH-UCSD-0002,ALT,2,2025-02-23,16,29,WEEK 2,15,1,Y
CATH,CATH-UCSD-0002,AST,1,2025-02-21,14,27,WEEK 2,15,1,Y
CATH,CATH-UCSD-0003,ALT,1,2025-03-15,8,18,WEEK 2,15,7,Y
CATH,CATH-UCSD-0004,ALT,1,2025-04-09,22,33,WEEK 2,15,7,Y
CATH,CATH-UCSD-0005,ALT,1,2025-04-30,15,21,WEEK 2,15,0,Y
CATH,CATH-UCSD-0005,ALT,2,2025-04-30,15,23,WEEK 2,15,0,
CATH,CATH-UCSD-0006,ALT,1,2025-05-12,,28,,,,
