STUDYID,USUBJID,DOMAIN,AESEQ,AETERM,AESTDTC,AEENDTC,AESTDY,AEENDY
DEMO,DEMO-001,AE,1,HEADACHE,2025-01-15,2025-01-20,6,11
DEMO,DEMO-001,AE,2,NAUSEA,2025-02,2025-02-25,,47
DEMO,DEMO-002,AE,1,ECZEMA FLARE,2025,2025-03-10,,10
DEMO,DEMO-002,AE,2,DIZZINESS,2025-02-15,2025,-14,
DEMO,DEMO-003,AE,1,FATIGUE,2025-05-25,2025-05-28,-7,-4
DEMO,DEMO-003,AE,2,RASH,2025-06-01,2025-06-05,1,5
DEMO,DEMO-004,AE,1,COUGH,2025-04-10,2025-04,10,
DEMO,DEMO-004,AE,2,INSOMNIA,2025,2025-05-05,,35
