STUDYID,USUBJID,ECTRT,ECDOSE,ECDOSU,ECDOSFRQ,ECSTDTC,ECADJ
DOSEINT,DI-001,Study Drug,50,mg,QD,2025-01-02,
DOSEINT,DI-001,Study Drug,50,mg,QD,2025-01-03,
DOSEINT,DI-001,Study Drug,50,mg,QD,2025-01-04,
DOSEINT,DI-002,Study Drug,100,mg,QD,2025-02-01,
DOSEINT,DI-002,Study Drug,100,mg,QD,2025-02-02,
DOSEINT,DI-002,Study Drug,75,mg,QD,2025-02-03,DOSE REDUCED
DOSEINT,DI-002,Study Drug,75,mg,QD,2025-02-04,
DOSEINT,DI-003,Study Drug,200,mg,QD,2025-03-01,
DOSEINT,DI-003,Study Drug,200,mg,QD,2025-03-02,
DOSEINT,DI-003,Study Drug,0,mg,QD,2025-03-03,DOSE INTERRUPTED
DOSEINT,DI-003,Study Drug,0,mg,QD,2025-03-04,
DOSEINT,DI-003,Study Drug,150,mg,QD,2025-03-05,DOSE REDUCED
DOSEINT,DI-003,Study Drug,150,mg,QD,2025-03-06,
