schema_version: "1.0"
domain: ADAE
keys: [STUDYID, USUBJID, AESEQ]
input:
  AE:
    path: input/ae.csv
    types:
      AESEQ: int
      AESTDTC: date
      AESTDTM: datetime
      SCORE: float

output:
  path: adae.csv
  columns: [STUDYID, USUBJID, AESEQ, ASTDT, ASTDT2, REVIEWFL]

columns:
  - name: STUDYID
    type: str
    label: Study Identifier
    derivation: AE.STUDYID
  - name: USUBJID
    type: str
    label: Unique Subject Identifier
    derivation: AE.USUBJID
  - name: AESEQ
    type: int
    label: Sequence Number
    derivation: AE.AESEQ
  - name: ASTDT
    type: date
    label: Analysis Start Date
    derivation: AE.AESTDTC
  - name: ASTDTM
    type: datetime
    label: Analysis Start Datetime
    derivation: AE.AESTDTM
  - name: ASTDT2
    type: date
    label: Analysis Start Date from Datetime
    derivation:
      to_date: {source: ASTDTM}
  - name: AETERM
    type: str
    label: Reported Term for the Adverse Event
    derivation: AE.AETERM
  - name: SCORE
    type: float
    label: Protocol Review Score
    derivation: AE.SCORE
  - name: REVIEWFL
    type: str
    label: Protocol Review Flag
    derivation:
      case:
        - when: >-
            (ASTDT BETWEEN DATE '2025-01-01' AND DATE '2025-01-31'
            OR ASTDTM >= DATETIME '2025-02-01T09:30')
            AND AETERM LIKE 'INF!_%' ESCAPE '!'
            AND SCORE >= -1.5
          then: {literal: Y}
        - otherwise: {literal: N}
    verifications:
      allowed_values: {values: [Y, N]}

verifications:
  - unique: {columns: [STUDYID, USUBJID, AESEQ]}
  - row_count: {min: 4, max: 4}
