STUDYID,USUBJID,PARAMCD,AVAL,AVALC,ANRLO,R2ANRLO,R2ANRLOC
CATH,CATH-001,CHOL,5.125,5.13,4,1.28125,1.2813
CATH,CATH-001,GLUC,12.5,12.50,4,3.125,3.1250
CATH,CATH-002,CHOL,140,140.00,100,1.4,1.4000
CATH,CATH-002,GLUC,2.675,2.67,4,0.66875,0.6687
CATH,CATH-003,GLUC,,,4,,
