STUDYID,USUBJID,AESEQ,AEDECOD,AESER,PRIOR_SAEFL,PRIOR_SAEDECOD,PRIOR_SAESEQ,FIRST_SAEDECOD,FIRST_SAESEQ
YAMAA-01,S1,1,HEADACHE,Y,,,,,
YAMAA-01,S1,3,NAUSEA,Y,,,,,
YAMAA-01,S2,2,FEVER,Y,,,,,
YAMAA-01,S1,2,COUGH,N,Y,HEADACHE,1,HEADACHE,1
YAMAA-01,S1,4,FATIGUE,N,Y,NAUSEA,3,HEADACHE,1
YAMAA-01,S1,5,RASH,N,Y,NAUSEA,3,HEADACHE,1
YAMAA-01,S2,1,DIZZINESS,N,,,,FEVER,2
YAMAA-01,S2,3,VOMITING,N,Y,FEVER,2,FEVER,2
YAMAA-01,S3,1,BACK PAIN,N,,,,,
YAMAA-01,S3,2,INFLUENZA,N,,,,,
