STUDYID,USUBJID,AESEQ,AETERM,AESEV
PILOT7,P7-401,1,Nausea,SEVERE
PILOT7,P7-401,2,Fatigue,MILD
PILOT7,P7-401,3,Pneumonitis,SEVERE
PILOT7,P7-401,4,Rash,MODERATE
PILOT7,P7-402,1,Headache,MODERATE
PILOT7,P7-402,2,Insomnia,MODERATE
PILOT7,P7-403,1,Diarrhoea,MODERATE
PILOT7,P7-403,2,Cough,
PILOT7,P7-403,3,Pyrexia,
