DOMAIN,STUDYID,USUBJID,DSCAT,DSSCAT,DSTERM,DSDECOD,DSSTDTC,DSSEQ
DS,STUDY01,001,PROTOCOL MILESTONE,,INFORMED CONSENT OBTAINED,INFORMED CONSENT OBTAINED,2024-01-10,1
DS,STUDY01,003,PROTOCOL MILESTONE,,INFORMED CONSENT OBTAINED,INFORMED CONSENT OBTAINED,2024-03-01,1
DS,STUDY01,002,PROTOCOL MILESTONE,,INFORMED CONSENT OBTAINED,INFORMED CONSENT OBTAINED,2024-02-01,1
DS,STUDY01,002,PROTOCOL MILESTONE,,RANDOMIZED,RANDOMIZED,2024-02-05,2
DS,STUDY01,001,PROTOCOL MILESTONE,,RANDOMIZED,RANDOMIZED,2024-01-10,2
DS,STUDY01,003,DISPOSITION EVENT,SCREENING,Did not meet eligibility criteria,SCREEN FAILURE,2024-03-05,2
DS,STUDY01,002,DISPOSITION EVENT,STUDY TREATMENT,Severe nausea,ADVERSE EVENT,2024-05-20,3
DS,STUDY01,001,DISPOSITION EVENT,STUDY TREATMENT,COMPLETED,COMPLETED,2024-06-15,3
DS,STUDY01,001,DISPOSITION EVENT,STUDY,COMPLETED,COMPLETED,2024-09-01,4
DS,STUDY01,002,DISPOSITION EVENT,STUDY,COMPLETED,COMPLETED,2024-08-10,4
