schema_version: "1.0"
domain: ADVS
keys: [STUDYID, USUBJID, AVISIT, PARAMCD]
input:
  VS:
    path: input/vs.csv
    types: {VSSTRESN: float}
  ADSL:
    path: input/adsl.csv
    types: {HEIGHTBL: float}

output:
  path: advs.csv
  columns: [STUDYID, USUBJID, AVISIT, PARAMCD, PARAM, AVAL]

columns:
  - name: STUDYID
    type: str
    label: Study Identifier
    derivation: VS.STUDYID

  - name: USUBJID
    type: str
    label: Unique Subject Identifier
    derivation: VS.USUBJID

  - name: AVISIT
    type: str
    label: Analysis Visit Name
    derivation: VS.VISIT

  - name: PARAMCD
    type: str
    label: Parameter Code

  - name: PARAM
    type: str
    label: Parameter

  - name: HEIGHTBL
    type: float
    label: Baseline Height (cm)

  - name: AVAL
    type: float
    label: Analysis Value

rows:
  - id: collected
    dataset: VS
    derivations:
      PARAMCD: VS.VSTESTCD
      PARAM: VS.VSTEST
      HEIGHTBL: {literal: null}
      AVAL: VS.VSSTRESN

  - id: derived_bmi
    dataset: VS
    filter: "VS.VSTESTCD = 'WEIGHT' AND VS.VSSTRESN IS NOT NULL"
    derivations:
      PARAMCD: {literal: BMI}
      PARAM: {literal: Body Mass Index (kg/m^2)}
      HEIGHTBL: ADSL.HEIGHTBL
      AVAL:
        compute:
          expr: "VS.VSSTRESN / NULLIF(HEIGHTBL * HEIGHTBL / 10000, 0)"

verifications:
  - unique:
      columns: [STUDYID, USUBJID, AVISIT, PARAMCD]
  - row_count:
      min: 24
      max: 24
  - implies:
      id: bmi-empty-only-without-usable-height
      when: "PARAMCD = 'BMI' AND AVAL IS NULL"
      then: "HEIGHTBL IS NULL OR HEIGHTBL = 0"
  - assert:
      id: check-height-unit
      expr: "PARAMCD <> 'HEIGHT' OR PARAM = 'Height (cm)'"
  - assert:
      id: check-weight-unit
      expr: "PARAMCD <> 'WEIGHT' OR PARAM = 'Weight (kg)'"
