STUDYID,USUBJID,PARAMCD,AVISIT,PCHG
CATH,CATH-UCSD-0001,EASI,WEEK 4,-80
CATH,CATH-UCSD-0002,EASI,WEEK 4,-50
CATH,CATH-UCSD-0003,EASI,WEEK 4,-85
CATH,CATH-UCSD-0004,EASI,WEEK 4,
CATH,CATH-UCSD-0005,EASI,WEEK 4,
