STUDYID,USUBJID,AESEQ,AEDECOD,AESTDTC
YAMAA-01,YAMAA-01-101,1,HEADACHE,2023-01-10
YAMAA-01,YAMAA-01-101,2,COVID-19,2023-01-15
YAMAA-01,YAMAA-01-101,3,COUGH,2023-01-15
YAMAA-01,YAMAA-01-101,4,FATIGUE,2023-01-20
YAMAA-01,YAMAA-01-101,5,NAUSEA,
YAMAA-01,YAMAA-01-102,1,NAUSEA,2023-02-01
YAMAA-01,YAMAA-01-102,2,FATIGUE,2023-02-04
YAMAA-01,YAMAA-01-103,1,COVID-19,2023-03-01
YAMAA-01,YAMAA-01-103,2,COVID-19,2023-03-01
YAMAA-01,YAMAA-01-103,3,PYREXIA,2023-03-03
YAMAA-01,YAMAA-01-104,1,COVID-19,2023-04-05
