STUDYID,RDOMAIN,USUBJID,IDVAR,IDVARVAL,QNAM,QLABEL,QVAL,QORIG,QEVAL
CATH,MH,CATH-UCSD-0001,MHSEQ,1,MHCONF,Confirmed by Medical Records,Y,Collected,
CATH,MH,CATH-UCSD-0001,MHSEQ,1,MHFAMHX,Family History,Y,Collected,
CATH,MH,CATH-UCSD-0001,MHSEQ,2,MHFAMHX,Family History,N,Collected,
CATH,MH,CATH-UCSD-0002,MHSEQ,1,MHCONF,Confirmed by Medical Records,N,Collected,
CATH,MH,CATH-UCSD-0002,MHSEQ,1,MHFAMHX,Family History,N,Collected,
CATH,MH,CATH-UCSD-0002,MHSEQ,2,MHCONF,Confirmed by Medical Records,Y,Collected,
CATH,MH,CATH-UCSD-0002,MHSEQ,2,MHFAMHX,Family History,Y,Collected,
