schema_version: "1.0"
domain: ADLB
keys: [STUDYID, USUBJID, PARAMCD, LBSEQ]
input:
  ADLB_RAW: {path: input/adlb_raw.csv, types: {ADT: date}}

output:
  path: adlb.csv
  columns: [STUDYID, USUBJID, PARAMCD, LBSEQ, ADT, ADY, AVAL, AVISIT, AWTARGET,
            ADIST, ANL01FL]

columns:
  - name: STUDYID
    type: str
    label: Study Identifier
    derivation: ADLB_RAW.STUDYID

  - name: USUBJID
    type: str
    label: Unique Subject Identifier
    derivation: ADLB_RAW.USUBJID

  - name: PARAMCD
    type: str
    label: Parameter Code
    derivation: ADLB_RAW.PARAMCD

  - name: LBSEQ
    type: int
    label: Sequence Number
    derivation: ADLB_RAW.LBSEQ

  - name: ADT
    type: date
    label: Analysis Date
    derivation: ADLB_RAW.ADT

  - name: ADY
    type: int
    label: Analysis Relative Day
    derivation: ADLB_RAW.ADY

  - name: AVAL
    type: float
    label: Analysis Value
    derivation: ADLB_RAW.AVAL

  # One analysis window, study days 8 to 22 around target day 15. A record
  # outside it, or with no study day, gets no visit, target, or distance.
  - name: AVISIT
    type: str
    label: Analysis Visit
    derivation:
      case:
        - when: "ADY BETWEEN 8 AND 22"
          then: {literal: WEEK 2}
    verifications:
      allowed_values:
        values: [WEEK 2]

  - name: AWTARGET
    type: int
    label: Analysis Window Target
    derivation:
      case:
        - when: "AVISIT IS NOT NULL"
          then: {literal: 15}

  - name: ADIST
    type: float
    label: Analysis Day Distance from Target
    derivation:
      compute:
        expr: "ABS(ADY - AWTARGET)"
    verifications:
      range:
        min: 0

  # Within each subject, parameter, and visit: closest to the target first,
  # then the later study day, then the lower sequence number. ANL01FL marks
  # rank 1.
  - name: ARNK
    type: int
    label: Analysis Rank
    derivation:
      row_number:
        window:
          group_by: [STUDYID, USUBJID, PARAMCD, AVISIT]
          order_by:
            - ADIST
            - {variable: ADY, direction: desc}
            - LBSEQ
          filter: "AVISIT IS NOT NULL"

  - name: ANL01FL
    type: str
    label: Analysis Record Flag 01
    derivation:
      flag: "ARNK = 1"

verifications:
  - unique:
      columns: [STUDYID, USUBJID, PARAMCD, LBSEQ]
  - row_count:
      min: 11
      max: 11
  - all_or_none:
      id: window-derivation-completeness
      columns: [AVISIT, AWTARGET, ADIST]
  - assert:
      id: analysis-record-is-inside-window
      when: "ANL01FL = 'Y'"
      require: "ADY BETWEEN 8 AND 22"
