STUDYID,USUBJID,DSDECOD,DSDTC,DSSEQ
YAMAA-01,YAMAA-01-103,DISEASE PROGRESSION,2026-04-01,1
YAMAA-01,YAMAA-01-104,WITHDRAWAL OF CONSENT,2026-06-01,1
YAMAA-01,YAMAA-01-105,STUDY DISCONTINUATION,2026-01-20,1
YAMAA-01,YAMAA-01-106,DISEASE PROGRESSION,2026-03-12,1
