STUDYID,USUBJID,VSSEQ,VSTESTCD,VSDTC,VSSTRESN
YAMAA-01,YAMAA-01-101,1,HEIGHT,2025-01-06,175
YAMAA-01,YAMAA-01-101,2,WEIGHT,2025-01-06,72.5
YAMAA-01,YAMAA-01-101,3,WEIGHT,2025-01-27,73.1
YAMAA-01,YAMAA-01-101,4,WEIGHT,2025-02-17,71.8
YAMAA-01,YAMAA-01-102,1,WEIGHT,2025-02-04,88.0
YAMAA-01,YAMAA-01-103,1,HEIGHT,2025-02-02,162
YAMAA-01,YAMAA-01-103,2,WEIGHT,2025-02-02,58.4
YAMAA-01,YAMAA-01-104,1,HEIGHT,2025-02-01,180
YAMAA-01,YAMAA-01-104,2,HEIGHT,2025-02-20,181
YAMAA-01,YAMAA-01-104,3,WEIGHT,2025-02-01,95.2
YAMAA-01,YAMAA-01-105,1,HEIGHT,2025-03-01,168
YAMAA-01,YAMAA-01-105,2,WEIGHT,2025-03-22,64.0
YAMAA-01,YAMAA-01-106,1,WEIGHT,2025-03-09,77.3
