STUDYID,USUBJID,RDOMAIN,IDVAR,IDVARVAL,RELTYPE,RELID
ABC123,,FA,FALNKID,,MANY,1
ABC123,,FA,FALNKID,,MANY,2
ABC123,,FA,FALNKID,,MANY,3
ABC123,,AE,AELNKID,,ONE,1
ABC123,,AE,AELNKID,,ONE,2
ABC123,,AE,AELNKID,,ONE,3
