STUDYID,USUBJID,VISIT,QSSEQ,QSCAT,QSTESTCD,QSTEST,QSSTRESN
PILOT7,P7-101,BASELINE,1,PHYSICAL FUNCTIONING SCALE,PF01,Trouble with strenuous activity,2
PILOT7,P7-101,BASELINE,2,PHYSICAL FUNCTIONING SCALE,PF02,Trouble with a long walk,0
PILOT7,P7-101,BASELINE,3,PHYSICAL FUNCTIONING SCALE,PF03,Trouble with a short walk,2
PILOT7,P7-101,BASELINE,4,PHYSICAL FUNCTIONING SCALE,PF04,Needs to stay in bed or a chair,1
PILOT7,P7-101,WEEK 12,5,PHYSICAL FUNCTIONING SCALE,PF01,Trouble with strenuous activity,3
PILOT7,P7-101,WEEK 12,6,PHYSICAL FUNCTIONING SCALE,PF02,Trouble with a long walk,3
PILOT7,P7-101,WEEK 12,7,PHYSICAL FUNCTIONING SCALE,PF03,Trouble with a short walk,
PILOT7,P7-101,WEEK 12,8,PHYSICAL FUNCTIONING SCALE,PF04,Needs to stay in bed or a chair,3
PILOT7,P7-102,BASELINE,1,PHYSICAL FUNCTIONING SCALE,PF01,Trouble with strenuous activity,1
PILOT7,P7-102,BASELINE,2,PHYSICAL FUNCTIONING SCALE,PF02,Trouble with a long walk,
PILOT7,P7-102,BASELINE,3,PHYSICAL FUNCTIONING SCALE,PF03,Trouble with a short walk,
PILOT7,P7-102,BASELINE,4,PHYSICAL FUNCTIONING SCALE,PF04,Needs to stay in bed or a chair,2
PILOT7,P7-102,WEEK 12,5,PHYSICAL FUNCTIONING SCALE,PF01,Trouble with strenuous activity,
PILOT7,P7-102,WEEK 12,6,PHYSICAL FUNCTIONING SCALE,PF02,Trouble with a long walk,
PILOT7,P7-102,WEEK 12,7,PHYSICAL FUNCTIONING SCALE,PF03,Trouble with a short walk,
PILOT7,P7-102,WEEK 12,8,PHYSICAL FUNCTIONING SCALE,PF04,Needs to stay in bed or a chair,
PILOT7,P7-103,BASELINE,1,PHYSICAL FUNCTIONING SCALE,PF01,Trouble with strenuous activity,4
PILOT7,P7-103,BASELINE,2,PHYSICAL FUNCTIONING SCALE,PF02,Trouble with a long walk,4
PILOT7,P7-103,BASELINE,3,PHYSICAL FUNCTIONING SCALE,PF03,Trouble with a short walk,4
PILOT7,P7-103,BASELINE,4,PHYSICAL FUNCTIONING SCALE,PF04,Needs to stay in bed or a chair,4
PILOT7,P7-103,BASELINE,5,EMOTIONAL FUNCTIONING SCALE,EF01,Feeling tense,3
