STUDYID,USUBJID,CMSEQ,CMTRT,CMDECOD,PATHSEQ,ATC1,ATC2,ATC3,ATC4,ATC1CD,ATC2CD,ATC3CD,ATC4CD,TRTSDT,TRTEDT
T1,S01,1,ASPIRIN,ACETYLSALICYLIC ACID,1,NERVOUS SYSTEM,ANALGESICS,OTHER ANALGESICS AND ANTIPYRETICS,SALICYLIC ACID AND DERIVATIVES,N,N02,N02B,N02BA,2020-01-10,2020-12-31
T1,S01,1,ASPIRIN,ACETYLSALICYLIC ACID,2,BLOOD AND BLOOD FORMING ORGANS,ANTITHROMBOTIC AGENTS,ANTITHROMBOTIC AGENTS,PLATELET AGGREGATION INHIBITORS EXCL HEPARIN,B,B01,B01A,B01AC,2020-01-10,2020-12-31
T1,S01,2,LISINOPRIL,LISINOPRIL,1,CARDIOVASCULAR SYSTEM,AGENTS ACTING ON THE RENIN ANGIOTENSIN SYSTEM,PLAIN ACE INHIBITORS,PLAIN ACE INHIBITORS,C,C09,C09A,C09AA,2020-01-10,2020-12-31
T1,S02,1,HERBAL TEA,,1,,,,,,,,,2020-03-01,
